<?xml version="1.0" encoding="UTF-8"?>

<Bundle xmlns="http://hl7.org/fhir">
  <id value="b50acc1e-3f4e-41d3-9c21-dda924adb210"/>
  <meta>
    <lastUpdated value="2019-08-12T10:30:00+10:00"/>
  </meta>
  <identifier>
    <system value="urn:ietf:rfc:3986"/>
    <value value="urn:uuid:a1446554-f351-47b0-86f0-10baedadac60"/>
  </identifier>
  <type value="document"/>
  <entry>
    <fullUrl value="urn:uuid:fbb76e2c-62d9-40d9-bab3-00bd389b1913"/>
    <resource>
      <Composition>
        <id value="fbb76e2c-62d9-40d9-bab3-00bd389b1913"/>
        <meta>
          <versionId value="20190812v01"/>
          <profile value="http://ns.electronichealth.net.au/ci/fhir/3.0/StructureDefinition/composition-sml-prac-1"/>
        </meta>
        <language value="en-AU"/>
        <text>
          <status value="additional"/><div xmlns="http://www.w3.org/1999/xhtml">
                        <h2>Shared Medicines List</h2>
                        <ul>
                            <li>Date: 12/08/2019</li>
                            <li>Status: final</li>
                        </ul>
                        <h3>Patient details</h3>
                        <ul>
                            <li>Mrs Bonny Goodwin</li>
                            <li>Contact: (08) 5550 1234 (home phone); 0491 570 006 (mobile)</li>
                            <li>Female</li>
                            <li>Married</li>
                            <li>IHI: 8003608000228445</li>
                            <li>Medicare number: 3951032981</li>
                        </ul>
                        <h3>Author details</h3>
                        <ul>
                            <li>Pharmacist</li>
                            <li>HPI-I: 8003619900041630</li>
                        </ul>
                        <h3>Attester details</h3>
                        <ul>
                            <li>Pharmacist</li>
                            <li>HPI-I: 8003619900041630</li>
                            <li>Time: 02 Dec 2019 10:00 AM</li>
                        </ul>
                        <h3>General Practitioner</h3>
                        <ul>
                            <li>Dr. G. Practitioner</li>
                        </ul>
                        <h3>Allergies and Intolerances</h3>
                        <p>No known allergies</p>

                        <h3>Encounter Details</h3>
                        <p>Medicines review: 12 Aug 2019 09:00 AM to 12 Aug 2019 10:30 AM</p>

                        <h3>Current Medicines</h3>
                        <table border="1">
                            <caption>Current medicines</caption>
                            <thead>
                                <tr>
                                    <th>Medicine</th>
                                    <th>Medicine brand name</th>
                                    <th>Directions</th>
                                    <th>Purpose</th>
                                    <th>Status</th>
                                    <th>Status reason</th>
                                </tr>
                            </thead>
                            <tbody>
                                <tr>
                                    <td/>
                                    <td>Tritace</td>
                                    <td>Take one tablet in the morning daily.</td>
                                    <td>To reduce high blood pressure; treat heart failure after a
                                        heart attack; prevent progresion of kidney failure; reduce
                                        the risk of heart attack, stroke and stenting</td>
                                    <td>Unchanged</td>
                                    <td/>
                                </tr>
                                <tr>
                                    <td>docusate sodium 50 mg + sennoside B 8 mg tablet</td>
                                    <td>Co-Senna</td>
                                    <td>Take two tablets twice a day.</td>
                                    <td>Laxative for constipation, works by softening the stools and
                                        also assists by stimulating the gut to achieve bowel
                                        movements.</td>
                                    <td>New</td>
                                    <td>Laxative for constipation.</td>
                                </tr>
                                <tr>
                                    <td>Oxycodone</td>
                                    <td>Endone</td>
                                    <td>Take one to two tablets every four hours when required.</td>
                                    <td>For relief of moderate to severe pain.</td>
                                    <td>Amended</td>
                                    <td>Dose increased</td>
                                </tr>
                            </tbody>
                        </table>
                    </div>
        </text>
        <extension url="http://hl7.org.au/fhir/StructureDefinition/composition-author-role">
          <valueReference>
          <!--  logical reference to PractitionerRole  -->
            <identifier>
              <type>
                <coding>
                  <system value="http://hl7.org/fhir/v2/0203"/>
                  <code value="NPI"/>
                  <display value="National provider identifier"/>
                </coding>
                <text value="HPI-I"/>
              </type>
              <system value="http://ns.electronichealth.net.au/id/hi/hpii/1.0"/>
              <value value="8003619900041630"/>
            </identifier>
          </valueReference>
        </extension>
        <status value="final"/>
        <type>
          <coding>
            <system value="http://loinc.org"/>
            <code value="56445-0"/>
          </coding>
        </type>
        <subject>
        <!--  logical reference to Patient  -->
          <identifier>
            <type>
              <coding>
                <system value="http://hl7.org/fhir/v2/0203"/>
                <code value="NI"/>
                <display value="National unique individual identifier"/>
              </coding>
            </type>
            <system value="http://ns.electronichealth.net.au/id/hi/ihi/1.0"/>
            <value value="8003608000228445"/>
          </identifier>
        </subject>
        <encounter>
          <reference value="urn:uuid:f168de08-0068-4e8b-917d-c7b84dcafbf6"/>
        </encounter>
        <date value="2019-08-12"/>
        <author>
        <!--  logical reference to Practitioner  -->
          <identifier>
            <type>
              <coding>
                <system value="http://hl7.org/fhir/v2/0203"/>
                <code value="NPI"/>
                <display value="National provider identifier"/>
              </coding>
              <text value="HPI-I"/>
            </type>
            <system value="http://ns.electronichealth.net.au/id/hi/hpii/1.0"/>
            <value value="8003619900041630"/>
          </identifier>
        </author>
        <title value="Shared Medicines List"/>
        <attester>
          <mode value="legal"/>
          <time value="2019-09-02T10:00:15+10:00"/>
          <party>
          <!--  logical reference to Practitioner  -->
            <identifier>
              <type>
                <coding>
                  <system value="http://hl7.org/fhir/v2/0203"/>
                  <code value="NPI"/>
                  <display value="National provider identifier"/>
                </coding>
                <text value="HPI-I"/>
              </type>
              <system value="http://ns.electronichealth.net.au/id/hi/hpii/1.0"/>
              <value value="8003619900041630"/>
            </identifier>
          </party>
        </attester>
        <custodian>
        <!--  logical reference to Organization  -->
          <identifier>
            <type>
              <coding>
                <system value="http://hl7.org.au/fhir/v2/0203"/>
                <code value="NOI"/>
              </coding>
              <text value="HPI-O"/>
            </type>
            <system value="http://ns.electronichealth.net.au/id/hi/hpio/1.0"/>
            <value value="8003623233366573"/>
          </identifier>
        </custodian>
        <section>
          <title value="Allergies and Intolerances"/>
          <code>
            <coding>
              <system value="http://loinc.org"/>
              <code value="48765-2"/>
            </coding>
          </code>
          <text>
            <status value="generated"/><div xmlns="http://www.w3.org/1999/xhtml" lang="en-AU">
                            <p>No known allergies</p>
                        </div>
          </text>
          <entry>
            <reference value="urn:uuid:9e146d18-06c8-4906-a8dd-09aa11941a72"/>
          </entry>
        </section>
        <section>
          <title value="Current Medicines"/>
          <code>
            <coding>
              <system value="https://healthterminologies.gov.au/fhir/CodeSystem/nctis-data-components-1"/>
              <code value="101.32009"/>
              <display value="Current Medicines"/>
            </coding>
          </code>
          <text>
            <status value="extensions"/><div xmlns="http://www.w3.org/1999/xhtml" lang="en-AU">
                            <table border="1">
                                <caption>Current Medicines</caption>
                                <thead>
                                    <tr>
                                        <th>Medicine</th>
                                        <th>Medicine brand name</th>
                                        <th>Directions</th>
                                        <th>Purpose</th>
                                        <th>Status</th>
                                        <th>Status reason</th>
                                    </tr>
                                </thead>
                                <tbody>
                                    <tr>
                                        <td/>
                                        <td>Tritace</td>
                                        <td>Take one tablet in the morning daily.</td>
                                        <td>To reduce high blood pressure; treat heart failure after
                                            a heart attack; prevent progresion of kidney failure;
                                            reduce the risk of heart attack, stroke and
                                            stenting</td>
                                        <td>Unchanged</td>
                                        <td/>
                                    </tr>
                                    <tr>
                                        <td>docusate sodium 50 mg + sennoside B 8 mg tablet</td>
                                        <td>Co-Senna</td>
                                        <td>Take two tablets twice a day.</td>
                                        <td>Laxative for constipation, works by softening the stools
                                            and also assists by stimulating the gut to achieve bowel
                                            movements.</td>
                                        <td>New</td>
                                        <td>Laxative for constipation.</td>
                                    </tr>
                                    <tr>
                                        <td>Oxycodone</td>
                                        <td>Endone</td>
                                        <td>Take one to two tablets every four hours when
                                            required.</td>
                                        <td>For relief of moderate to severe pain.</td>
                                        <td>Amended</td>
                                        <td>Dose increased</td>
                                    </tr>
                                </tbody>
                            </table>
                        </div>
          </text>
          <entry>
            <reference value="urn:uuid:bea8b6f7-5de8-4247-ac07-b319ec6d0c24"/>
          </entry>
        </section>
      </Composition>
    </resource>
  </entry>
  <entry>
    <fullUrl value="urn:uuid:f168de08-0068-4e8b-917d-c7b84dcafbf6"/>
    <resource>
      <Encounter>
        <id value="f168de08-0068-4e8b-917d-c7b84dcafbf6"/>
        <text>
          <status value="generated"/><div xmlns="http://www.w3.org/1999/xhtml"><p><b>Generated Narrative with Details</b></p><p><b>id</b>: f168de08-0068-4e8b-917d-c7b84dcafbf6</p><p><b>status</b>: finished</p><p><b>type</b>: Medicines review <span style="background: LightGoldenRodYellow">(Details : {SNOMED CT code '182836005' = 'Medication review', given as 'Review of medication'})</span></p><p><b>subject</b>: </p><p><b>period</b>: 12/08/2019 9:00:00 AM --&gt; 12/08/2019 10:30:00 AM</p></div>
        </text>
        <status value="finished"/>
        <type>
          <coding>
            <system value="http://snomed.info/sct"/>
            <code value="182836005"/>
            <display value="Review of medication"/>
          </coding>
          <text value="Medicines review"/>
        </type>
        <subject>
        <!--  logical reference to Patient  -->
          <identifier>
            <type>
              <coding>
                <system value="http://hl7.org/fhir/v2/0203"/>
                <code value="NI"/>
                <display value="National unique individual identifier"/>
              </coding>
            </type>
            <system value="http://ns.electronichealth.net.au/id/hi/ihi/1.0"/>
            <value value="8003608000228445"/>
          </identifier>
        </subject>
        <period>
          <start value="2019-08-12T09:00:00+10:00"/>
          <end value="2019-08-12T10:30:00+10:00"/>
        </period>
      </Encounter>
    </resource>
  </entry>
  <entry>
    <fullUrl value="urn:uuid:9e146d18-06c8-4906-a8dd-09aa11941a72"/>
    <resource>
      <AllergyIntolerance>
        <id value="9e146d18-06c8-4906-a8dd-09aa11941a72"/>
        <text>
          <status value="generated"/><div xmlns="http://www.w3.org/1999/xhtml"><p><b>Generated Narrative with Details</b></p><p><b>id</b>: 9e146d18-06c8-4906-a8dd-09aa11941a72</p><p><b>clinicalStatus</b>: active</p><p><b>verificationStatus</b>: unconfirmed</p><p><b>code</b>: No known allergies <span style="background: LightGoldenRodYellow">(Details : {SNOMED CT code '716186003' = 'No known allergy (situation)', given as 'No known allergy'})</span></p><p><b>patient</b>: </p></div>
        </text>
        <clinicalStatus value="active"/>
        <verificationStatus value="unconfirmed"/>
        <code>
          <coding>
            <system value="http://snomed.info/sct"/>
            <code value="716186003"/>
            <display value="No known allergy"/>
          </coding>
          <text value="No known allergies"/>
        </code>
        <patient>
        <!--  logical reference to Patient  -->
          <identifier>
            <type>
              <coding>
                <system value="http://hl7.org/fhir/v2/0203"/>
                <code value="NI"/>
                <display value="National unique individual identifier"/>
              </coding>
            </type>
            <system value="http://ns.electronichealth.net.au/id/hi/ihi/1.0"/>
            <value value="8003608000228445"/>
          </identifier>
        </patient>
      </AllergyIntolerance>
    </resource>
  </entry>
  <entry>
    <fullUrl value="urn:uuid:bea8b6f7-5de8-4247-ac07-b319ec6d0c24"/>
    <resource>
      <List>
        <id value="bea8b6f7-5de8-4247-ac07-b319ec6d0c24"/>
        <language value="en-AU"/>
        <text>
          <status value="generated"/><div xmlns="http://www.w3.org/1999/xhtml"><p><b>Generated Narrative with Details</b></p><p><b>id</b>: bea8b6f7-5de8-4247-ac07-b319ec6d0c24</p><p><b>language</b>: en-AU</p><p><b>status</b>: current</p><p><b>mode</b>: snapshot</p><p><b>code</b>: Current Medicines <span style="background: LightGoldenRodYellow">(Details : {https://healthterminologies.gov.au/fhir/CodeSystem/nctis-data-components-1 code '101.32009' = '101.32009', given as 'Current Medicines'})</span></p><p><b>subject</b>: </p><p><b>encounter</b>: <a href="urn:uuid:f168de08-0068-4e8b-917d-c7b84dcafbf6">urn:uuid:f168de08-0068-4e8b-917d-c7b84dcafbf6</a></p><p><b>date</b>: 2019-08-12</p><p><b>source</b>: </p><blockquote><p><b>entry</b></p><p><b>flag</b>: Unchanged <span style="background: LightGoldenRodYellow">(Details : {http://hl7.org.au/fhir/CodeSystem/medicine-item-change code 'nochange' = 'Unchanged', given as 'Unchanged'})</span></p><p><b>item</b>: <a href="urn:uuid:69ae207f-b088-4585-a041-7196479c3fbe">urn:uuid:69ae207f-b088-4585-a041-7196479c3fbe</a></p></blockquote><blockquote><p><b>entry</b></p><p><b>flag</b>: New <span style="background: LightGoldenRodYellow">(Details : {http://hl7.org.au/fhir/CodeSystem/medicine-item-change code 'new' = 'New', given as 'New'})</span></p><p><b>item</b>: <a href="urn:uuid:c32b7d74-33ef-4ccc-85e2-442148071b01">urn:uuid:c32b7d74-33ef-4ccc-85e2-442148071b01</a></p></blockquote><blockquote><p><b>entry</b></p><p><b>flag</b>: Amended <span style="background: LightGoldenRodYellow">(Details : {http://hl7.org.au/fhir/CodeSystem/medicine-item-change code 'amended' = 'Amended', given as 'Amended'})</span></p><p><b>item</b>: <a href="urn:uuid:28c74aa8-b481-4ab2-80a2-bec1354b95a0">urn:uuid:28c74aa8-b481-4ab2-80a2-bec1354b95a0</a></p></blockquote></div>
        </text>
        <extension url="http://hl7.org.au/fhir/StructureDefinition/author-role">
          <valueReference>
          <!--  logical reference to PractitionerRole  -->
            <identifier>
              <type>
                <coding>
                  <system value="http://hl7.org/fhir/v2/0203"/>
                  <code value="NPI"/>
                  <display value="National provider identifier"/>
                </coding>
                <text value="HPI-I"/>
              </type>
              <system value="http://ns.electronichealth.net.au/id/hi/hpii/1.0"/>
              <value value="8003619900041630"/>
            </identifier>
          </valueReference>
        </extension>
        <status value="current"/>
        <mode value="snapshot"/>
        <code>
          <coding>
            <system value="https://healthterminologies.gov.au/fhir/CodeSystem/nctis-data-components-1"/>
            <code value="101.32009"/>
            <display value="Current Medicines"/>
          </coding>
        </code>
        <subject>
        <!--  logical reference to Patient  -->
          <identifier>
            <type>
              <coding>
                <system value="http://hl7.org/fhir/v2/0203"/>
                <code value="NI"/>
                <display value="National unique individual identifier"/>
              </coding>
            </type>
            <system value="http://ns.electronichealth.net.au/id/hi/ihi/1.0"/>
            <value value="8003608000228445"/>
          </identifier>
        </subject>
        <encounter>
          <reference value="urn:uuid:f168de08-0068-4e8b-917d-c7b84dcafbf6"/>
        </encounter>
        <date value="2019-08-12"/>
        <source>
        <!--  logical reference to Practitioner  -->
          <identifier>
            <type>
              <coding>
                <system value="http://hl7.org/fhir/v2/0203"/>
                <code value="NPI"/>
                <display value="National provider identifier"/>
              </coding>
              <text value="HPI-I"/>
            </type>
            <system value="http://ns.electronichealth.net.au/id/hi/hpii/1.0"/>
            <value value="8003619900041630"/>
          </identifier>
        </source>
        <entry>
          <flag>
            <coding>
              <system value="http://hl7.org.au/fhir/CodeSystem/medicine-item-change"/>
              <code value="nochange"/>
              <display value="Unchanged"/>
            </coding>
          </flag>
          <item>
            <reference value="urn:uuid:69ae207f-b088-4585-a041-7196479c3fbe"/>
          </item>
        </entry>
        <entry>
          <extension url="http://hl7.org.au/fhir/StructureDefinition/change-description">
            <valueString value="Laxative for constipation."/>
          </extension>
          <flag>
            <coding>
              <system value="http://hl7.org.au/fhir/CodeSystem/medicine-item-change"/>
              <code value="new"/>
              <display value="New"/>
            </coding>
          </flag>
          <item>
            <reference value="urn:uuid:c32b7d74-33ef-4ccc-85e2-442148071b01"/>
          </item>
        </entry>
        <entry>
          <extension url="http://hl7.org.au/fhir/StructureDefinition/change-description">
            <valueString value="Dose increased"/>
          </extension>
          <flag>
            <coding>
              <system value="http://hl7.org.au/fhir/CodeSystem/medicine-item-change"/>
              <code value="amended"/>
              <display value="Amended"/>
            </coding>
          </flag>
          <item>
            <reference value="urn:uuid:28c74aa8-b481-4ab2-80a2-bec1354b95a0"/>
          </item>
        </entry>
      </List>
    </resource>
  </entry>
  <entry>
    <fullUrl value="urn:uuid:69ae207f-b088-4585-a041-7196479c3fbe"/>
    <resource>
      <MedicationStatement>
        <id value="69ae207f-b088-4585-a041-7196479c3fbe"/>
        <text>
          <status value="generated"/><div xmlns="http://www.w3.org/1999/xhtml"><p><b>Generated Narrative with Details</b></p><p><b>id</b>: 69ae207f-b088-4585-a041-7196479c3fbe</p><p><b>status</b>: active</p><p><b>medication</b>: <a href="urn:uuid:01015470-52ce-4323-996b-f03f5f546f8f">urn:uuid:01015470-52ce-4323-996b-f03f5f546f8f</a></p><p><b>subject</b>: </p><p><b>taken</b>: y</p><p><b>reasonCode</b>: To reduce high blood pressure; treat                             heart failure after a heart attack; prevent                             progresion of kidney failure; reduce the risk of                             heart attack, stroke and stenting <span style="background: LightGoldenRodYellow">(Details )</span></p><p><b>dosage</b>: </p></div>
        </text>
        <status value="active"/>
        <medicationReference>
          <reference value="urn:uuid:01015470-52ce-4323-996b-f03f5f546f8f"/>
        </medicationReference>
        <subject>
        <!--  logical reference to Patient  -->
          <identifier>
            <type>
              <coding>
                <system value="http://hl7.org/fhir/v2/0203"/>
                <code value="NI"/>
                <display value="National unique individual identifier"/>
              </coding>
            </type>
            <system value="http://ns.electronichealth.net.au/id/hi/ihi/1.0"/>
            <value value="8003608000228445"/>
          </identifier>
        </subject>
        <taken value="y"/>
        <reasonCode>
          <text value="To reduce high blood pressure; treat                             heart failure after a heart attack; prevent                             progresion of kidney failure; reduce the risk of                             heart attack, stroke and stenting"/>
        </reasonCode>
        <dosage>
          <text value="Take one tablet in the morning daily."/>
        </dosage>
      </MedicationStatement>
    </resource>
  </entry>
  <entry>
    <fullUrl value="urn:uuid:c32b7d74-33ef-4ccc-85e2-442148071b01"/>
    <resource>
      <MedicationStatement>
        <id value="c32b7d74-33ef-4ccc-85e2-442148071b01"/>
        <text>
          <status value="generated"/><div xmlns="http://www.w3.org/1999/xhtml"><p><b>Generated Narrative with Details</b></p><p><b>id</b>: c32b7d74-33ef-4ccc-85e2-442148071b01</p><p><b>status</b>: active</p><p><b>medication</b>: <a href="urn:uuid:7cb67069-6a34-46c2-9ff5-76277fafc38e">urn:uuid:7cb67069-6a34-46c2-9ff5-76277fafc38e</a></p><p><b>subject</b>: </p><p><b>taken</b>: y</p><p><b>reasonCode</b>: Laxative for constipation, works by                         softening the stools and also assists by                         stimulating the gut to achieve bowel                         movements. <span style="background: LightGoldenRodYellow">(Details : {SNOMED CT code '14760008' = 'Constipation', given as 'Constipation'})</span></p><p><b>dosage</b>: </p></div>
        </text>
        <status value="active"/>
        <medicationReference>
          <reference value="urn:uuid:7cb67069-6a34-46c2-9ff5-76277fafc38e"/>
        </medicationReference>
        <subject>
        <!--  logical reference to Patient  -->
          <identifier>
            <type>
              <coding>
                <system value="http://hl7.org/fhir/v2/0203"/>
                <code value="NI"/>
                <display value="National unique individual identifier"/>
              </coding>
            </type>
            <system value="http://ns.electronichealth.net.au/id/hi/ihi/1.0"/>
            <value value="8003608000228445"/>
          </identifier>
        </subject>
        <taken value="y"/>
        <reasonCode>
          <coding>
            <system value="http://snomed.info/sct"/>
            <code value="14760008"/>
            <display value="Constipation"/>
          </coding>
          <text value="Laxative for constipation, works by                         softening the stools and also assists by                         stimulating the gut to achieve bowel                         movements."/>
        </reasonCode>
        <dosage>
          <text value="Take two tablets twice a day."/>
        </dosage>
      </MedicationStatement>
    </resource>
  </entry>
  <entry>
    <fullUrl value="urn:uuid:28c74aa8-b481-4ab2-80a2-bec1354b95a0"/>
    <resource>
      <MedicationStatement>
        <id value="28c74aa8-b481-4ab2-80a2-bec1354b95a0"/>
        <text>
          <status value="generated"/><div xmlns="http://www.w3.org/1999/xhtml"><p><b>Generated Narrative with Details</b></p><p><b>id</b>: 28c74aa8-b481-4ab2-80a2-bec1354b95a0</p><p><b>status</b>: active</p><p><b>medication</b>: <a href="urn:uuid:9b79ca2a-023a-4076-b18d-0b2b5d99800d">urn:uuid:9b79ca2a-023a-4076-b18d-0b2b5d99800d</a></p><p><b>subject</b>: </p><p><b>taken</b>: y</p><p><b>reasonCode</b>: For relief of moderate to severe                         pain <span style="background: LightGoldenRodYellow">(Details : {SNOMED CT code '428346000' = 'Pain relief by medication (finding)', given as 'Pain relief by medication'})</span></p><p><b>dosage</b>: </p></div>
        </text>
        <status value="active"/>
        <medicationReference>
          <reference value="urn:uuid:9b79ca2a-023a-4076-b18d-0b2b5d99800d"/>
        </medicationReference>
        <subject>
        <!--  logical reference to Patient  -->
          <identifier>
            <type>
              <coding>
                <system value="http://hl7.org/fhir/v2/0203"/>
                <code value="NI"/>
                <display value="National unique individual identifier"/>
              </coding>
            </type>
            <system value="http://ns.electronichealth.net.au/id/hi/ihi/1.0"/>
            <value value="8003608000228445"/>
          </identifier>
        </subject>
        <taken value="y"/>
        <reasonCode>
          <coding>
            <system value="http://snomed.info/sct"/>
            <code value="428346000"/>
            <display value="Pain relief by medication"/>
          </coding>
          <text value="For relief of moderate to severe                         pain"/>
        </reasonCode>
        <dosage>
          <text value="Take one to two tablets every four hours when required."/>
        </dosage>
      </MedicationStatement>
    </resource>
  </entry>
  <entry>
    <fullUrl value="urn:uuid:01015470-52ce-4323-996b-f03f5f546f8f"/>
    <resource>
      <Medication>
        <text>
          <status value="generated"/><div xmlns="http://www.w3.org/1999/xhtml"><p><b>Generated Narrative with Details</b></p><p><b>code</b>: Tritace <span style="background: LightGoldenRodYellow">(Details )</span></p></div>
        </text>
        <extension url="http://hl7.org.au/fhir/StructureDefinition/medication-brand-name">
          <valueString value="Tritace"/>
        </extension>
        <code>
          <text value="Tritace"/>
        </code>
      </Medication>
    </resource>
  </entry>
  <entry>
    <fullUrl value="urn:uuid:7cb67069-6a34-46c2-9ff5-76277fafc38e"/>
    <resource>
      <Medication>
        <text>
          <status value="generated"/><div xmlns="http://www.w3.org/1999/xhtml"><p><b>Generated Narrative with Details</b></p><p><b>code</b>: docusate sodium 50 mg + sennoside B                         8 mg tablet <span style="background: LightGoldenRodYellow">(Details : {SNOMED CT code '33690011000036100' = '33690011000036100', given as 'docusate sodium 50 mg + sennoside B 8 mg tablet'})</span></p></div>
        </text>
        <extension url="http://hl7.org.au/fhir/StructureDefinition/medication-brand-name">
          <valueString value="Co-Senna"/>
        </extension>
        <extension url="http://hl7.org.au/fhir/StructureDefinition/medication-generic-name">
          <valueString value="docusate sodium 50 mg + sennoside B 8 mg tablet"/>
        </extension>
        <code>
          <coding>
            <system value="http://snomed.info/sct"/>
            <code value="33690011000036100"/>
            <display value="docusate sodium 50 mg + sennoside B 8 mg tablet"/>
          </coding>
          <text value="docusate sodium 50 mg + sennoside B                         8 mg tablet"/>
        </code>
      </Medication>
    </resource>
  </entry>
  <entry>
    <fullUrl value="urn:uuid:9b79ca2a-023a-4076-b18d-0b2b5d99800d"/>
    <resource>
      <Medication>
        <text>
          <status value="generated"/><div xmlns="http://www.w3.org/1999/xhtml"><p><b>Generated Narrative with Details</b></p><p><b>code</b>: Endone Oxycodone <span style="background: LightGoldenRodYellow">(Details : {http://pbs.gov.au/code/item code '5195K' = '5195K', given as 'oxycodone hydrochloride 5 mg tablet, 20'}; {http://pbs.gov.au/code/item code '2622B' = '2622B', given as 'OXYCODONE'})</span></p></div>
        </text>
        <extension url="http://hl7.org.au/fhir/StructureDefinition/medication-brand-name">
          <valueString value="Endone"/>
        </extension>
        <extension url="http://hl7.org.au/fhir/StructureDefinition/medication-generic-name">
          <valueString value="Oxycodone"/>
        </extension>
        <code>
          <coding>
            <system value="http://pbs.gov.au/code/item"/>
            <code value="5195K"/>
            <display value="oxycodone hydrochloride 5 mg tablet, 20"/>
          </coding>
          <coding>
            <system value="http://pbs.gov.au/code/item"/>
            <code value="2622B"/>
            <display value="OXYCODONE"/>
          </coding>
          <text value="Endone Oxycodone"/>
        </code>
      </Medication>
    </resource>
  </entry>
</Bundle>