{
  "resourceType": "Bundle",
  "id": "a37e43d2-393b-4953-8cdc-6e3b86c4ad9c",
  "meta": {
    "lastUpdated": "2019-02-09T10:49:22+10:00"
  },
  "identifier": {
    "system": "urn:ietf:rfc:3986",
    "value": "urn:uuid:b4039bff-90be-4fc4-850b-cc0190e94e3d"
  },
  "type": "document",
  "entry": [
    {
      "fullUrl": "urn:uuid:98e4b64a-d493-45c1-8102-b3b689da1c15",
      "resource": {
        "resourceType": "Composition",
        "id": "98e4b64a-d493-45c1-8102-b3b689da1c15",
        "meta": {
          "versionId": "20190205",
          "profile": [
            "http://ns.electronichealth.net.au/ci/fhir/3.0/StructureDefinition/composition-sml-prac-1"
          ]
        },
        "language": "en-AU",
        "text": {
          "status": "additional",
          "div": "<div xmlns=\"http://www.w3.org/1999/xhtml\" lang=\"en-AU\">\n                        <h2>Home Medicines Review Report for Mr. Lenny Matterson</h2>\n                        <table border=\"1\">\n                            <thead>\n                                <tr>\n                                    <th colspan=\"1\">Patient</th>\n                                    <th colspan=\"1\">Author</th>\n                                </tr>\n                            </thead>\n                            <tbody>\n                                <tr>\n                                    <td>\n                                        <p><b>Name:</b> Mr. Lenny MATTERSON</p>\n                                        <p><b>Identifiers:</b> IHI: 8003608166895854 and Medicare\n                                            Number: 5950890021 (expiry May 2019)</p>\n                                        <p><b>Gender:</b> male</p>\n                                        <p><b>Birthdate:</b> 6 Feb 1955 6:17AM</p>\n                                        <p><b>Indigenous status:</b> Aboriginal but not Torres\n                                            Strait Islander origin</p>\n                                        <p><b>Languages spoken:</b> Pitjantjatjara</p>\n                                    </td>\n                                    <td>\n                                        <p><b>Name:</b> Mr. Ned DEACON (Retail Pharmacist)</p>\n                                        <p><b>Identifiers:</b> HPI-I: 8003616566708106 and Medicare\n                                            Provider Number: 5544887B</p>\n                                        <p><b>Contact:</b> 0370102020 (work fax)</p>\n                                        <p><b>Address:</b> 50034 Queen St, Coburg, VIC 3058\n                                            (work)</p>\n                                    </td>\n                                </tr>\n                            </tbody>\n                        </table>\n\n                        <h3>Medicine summary</h3>\n                        <p><b>Date:</b> 5 Feb 2019 10:00AM - 5 Feb 2019 11:15AM</p>\n                        <p><b>Attested by:</b> Mr. Ned DEACON (on 5 Feb 2019)</p>\n                        <p><b>Document custodian:</b> Big Pharmacy (HPI-O: 8003626566699734)</p>\n\n                        <h3>Current Medicines</h3>\n                        <table border=\"1\">\n                            <thead>\n                                <tr>\n                                    <th colspan=\"3\" style=\"text-align:center;\">Home Medicines\n                                        Review</th>\n                                </tr>\n                                <tr>\n                                    <th>Date of Interview</th>\n                                    <th/>\n                                    <th>General Assessment</th>\n                                </tr>\n                            </thead>\n                            <tbody>\n                                <tr>\n                                    <td>5 Feb 2019 10:00AM to 11:15AM</td>\n                                    <td>Home medicines review</td>\n                                    <td>Patient has his medications packed into blister packs via\n                                        ABC pharmacy. He finds them easy to use and they promote\n                                        good adherence to his regime. His Bluecare nurse, Nurse B,\n                                        was present for the interview. Of the medication listed on\n                                        the referral, he is not currently taking Aldara 5% cream and\n                                        Chloramphenicol ointment. In addition to the medication\n                                        listed on the referral, he is also taking coQ10 150mg tab -\n                                        1 nocte.He reports occasional dizziness if he changes\n                                        position quickly, and does report falling outside in the\n                                        garden; he wears a falls alarm buzzer. He reports that he\n                                        generally only experiences chest pain when he becomes\n                                        stressed (doesn’t like paperwork). His blood pressure at the\n                                        time of the interview was 158 /76.</td>\n                                </tr>\n                            </tbody>\n                        </table>\n\n                        <table border=\"1\">\n                            <thead>\n                                <tr>\n                                    <th colspan=\"5\" style=\"text-align:center;\">Current\n                                        medicines</th>\n                                </tr>\n                                <tr>\n                                    <th>Medicine</th>\n                                    <th>Directions</th>\n                                    <th>Medicine purpose</th>\n                                    <th>Medicine status</th>\n                                    <th>Status Reason/Comment</th>\n                                </tr>\n                            </thead>\n                            <tbody>\n                                <tr>\n                                    <td>Amiodarone 200mg tab</td>\n                                    <td>1 in the morning</td>\n                                    <td/>\n                                    <td>Unchanged</td>\n                                    <td/>\n                                </tr>\n                                <tr>\n                                    <td>Bisoprolol 2.5mg tab</td>\n                                    <td>1/2 tablet in the morning</td>\n                                    <td/>\n                                    <td>Unchanged</td>\n                                    <td/>\n                                </tr>\n                                <tr>\n                                    <td>CoQ10 150mg tab</td>\n                                    <td>1 at night</td>\n                                    <td/>\n                                    <td>New</td>\n                                    <td>In pack – history of Atrial fibrillation</td>\n                                </tr>\n                            </tbody>\n                        </table>\n                        <p>Packed medicines: Some medicines packed in dose administration aid</p>\n\n                        <h3>Ceased Medicines</h3>\n                        <table border=\"1\">\n                            <thead>\n                                <tr>\n                                    <th colspan=\"2\" style=\"text-align:center;\">Ceased medicines</th>\n                                </tr>\n                                <tr>\n                                    <th>Ceased medicine</th>\n                                    <th>Reason for ceasing</th>\n                                </tr>\n                            </thead>\n                            <tbody>\n                                <tr>\n                                    <td>Aldara 5% cream</td>\n                                    <td>Completed 8-week course</td>\n                                </tr>\n                                <tr>\n                                    <td>Chloramphenicol 1% eye ointment</td>\n                                    <td>Stopped due to burning sensation in the eye.</td>\n                                </tr>\n                            </tbody>\n                        </table>\n                        <p>Packed medicines: No medicines packed in dose administration aid</p>\n                    </div>"
        },
        "extension": [
          {
            "url": "http://hl7.org.au/fhir/StructureDefinition/composition-author-role",
            "valueReference": {
              "reference": "urn:uuid:91555386-d478-4e3d-bd3d-ac642ff603c4"
            }
          }
        ],
        "status": "final",
        "type": {
          "coding": [
            {
              "system": "http://loinc.org",
              "code": "56445-0"
            }
          ]
        },
        "subject": {
          "reference": "urn:uuid:1fbd9663-b4cd-4a33-9657-650eca3a6b3f"
        },
        "encounter": {
          "reference": "urn:uuid:c97d9869-3d3b-4612-958d-7af2c1ffd1da"
        },
        "date": "2019-02-05",
        "author": [
          {
            "reference": "urn:uuid:f9695b57-7502-4f50-bf36-b68a755e9956"
          }
        ],
        "title": "Home Medicines Review Report for Mr. Lenny Matterson",
        "attester": [
          {
            "mode": [
              "legal"
            ],
            "time": "2019-02-05",
            "party": {
              "reference": "urn:uuid:f9695b57-7502-4f50-bf36-b68a755e9956"
            }
          }
        ],
        "custodian": {
          "reference": "urn:uuid:1a8a2450-f190-4511-a24c-a2825a5ae1ee"
        },
        "section": [
          {
            "title": "Current Medicines",
            "code": {
              "coding": [
                {
                  "system": "https://healthterminologies.gov.au/fhir/CodeSystem/nctis-data-components-1",
                  "code": "101.32009",
                  "display": "Current Medicines"
                }
              ]
            },
            "text": {
              "status": "extensions",
              "div": "<div xmlns=\"http://www.w3.org/1999/xhtml\" lang=\"en-AU\">\n                            <table border=\"1\">\n                                <caption>Home Medicines Review</caption>\n                                <thead>\n                                    <tr>\n                                        <th>Date of Interview</th>\n                                        <th/>\n                                        <th>General Assessment</th>\n                                    </tr>\n                                </thead>\n                                <tbody>\n                                    <tr>\n                                        <td>5 Feb 2019 10:00AM - 5 Feb 2019 11:15AM</td>\n                                        <td>Home medicines review</td>\n                                        <td>Patient has his medications packed into blister packs\n                                            via ABC pharmacy. He finds them easy to use and they\n                                            promote good adherence to his regime. His Bluecare\n                                            nurse, Nurse B, was present for the interview. Of the\n                                            medication listed on the referral, he is not currently\n                                            taking Aldara 5% cream and Chloramphenicol ointment. In\n                                            addition to the medication listed on the referral, he is\n                                            also taking coQ10 150mg tab - 1 nocte.He reports\n                                            occasional dizziness if he changes position quickly, and\n                                            does report falling outside in the garden; he wears a\n                                            falls alarm buzzer. He reports that he generally only\n                                            experiences chest pain when he becomes stressed (doesn’t\n                                            like paperwork). His blood pressure at the time of the\n                                            interview was 158 /76.</td>\n                                    </tr>\n                                </tbody>\n                            </table>\n                            <table border=\"1\">\n                                <caption>Current Medicines</caption>\n                                <thead>\n                                    <tr>\n                                        <th>Medicine</th>\n                                        <th>Directions</th>\n                                        <th>Medicine purpose</th>\n                                        <th>Medicine status</th>\n                                        <th>Status Reason/Comment</th>\n                                    </tr>\n                                </thead>\n                                <tbody>\n                                    <tr>\n                                        <td>Amiodarone 200mg tab</td>\n                                        <td>1 in the morning</td>\n                                        <td/>\n                                        <td>Unchanged</td>\n                                        <td/>\n                                    </tr>\n                                    <tr>\n                                        <td>Bisoprolol 2.5mg tab</td>\n                                        <td>1/2 tablet in the morning</td>\n                                        <td/>\n                                        <td>Unchanged</td>\n                                        <td/>\n                                    </tr>\n                                    <tr>\n                                        <td>CoQ10 150mg tab</td>\n                                        <td>1 at night</td>\n                                        <td/>\n                                        <td>New</td>\n                                        <td>In pack – new finding of Atrial fibrillation</td>\n                                    </tr>\n                                </tbody>\n                            </table>\n                            <p>Packed medicines: Some medicines packed in dose administration\n                                aid</p>\n                        </div>"
            },
            "entry": [
              {
                "reference": "urn:uuid:05ed5a63-70ab-4dfb-820c-4be0d79bb0d3"
              }
            ]
          },
          {
            "title": "Ceased medicines",
            "code": {
              "coding": [
                {
                  "system": "https://healthterminologies.gov.au/fhir/CodeSystem/nctis-data-components-1",
                  "code": "101.32027",
                  "display": "Ceased Medicines"
                }
              ]
            },
            "text": {
              "status": "extensions",
              "div": "<div xmlns=\"http://www.w3.org/1999/xhtml\" lang=\"en-AU\">\n                            <table border=\"1\">\n                                <caption>Ceased medicines</caption>\n                                <thead>\n                                    <tr>\n                                        <th>Ceased medicine</th>\n                                        <th>Reason for ceasing</th>\n                                    </tr>\n                                </thead>\n                                <tbody>\n                                    <tr>\n                                        <td>Aldara 5% cream</td>\n                                        <td>Completed 8-week course</td>\n                                    </tr>\n                                    <tr>\n                                        <td>Chloramphenicol 1% eye ointment</td>\n                                        <td>Stopped due to burning sensation in the eye.</td>\n                                    </tr>\n                                </tbody>\n                            </table>\n                            <p>Packed medicines: No medicines packed in dose administration aid</p>\n                        </div>"
            },
            "entry": [
              {
                "reference": "urn:uuid:c0c68add-8f8f-472e-98f3-ffcb0b6e016b"
              }
            ]
          }
        ]
      }
    },
    {
      "fullUrl": "urn:uuid:1fbd9663-b4cd-4a33-9657-650eca3a6b3f",
      "resource": {
        "resourceType": "Patient",
        "id": "1fbd9663-b4cd-4a33-9657-650eca3a6b3f",
        "text": {
          "status": "generated",
          "div": "<div xmlns=\"http://www.w3.org/1999/xhtml\"><p><b>Generated Narrative with Details</b></p><p><b>id</b>: 1fbd9663-b4cd-4a33-9657-650eca3a6b3f</p><p><b>identifier</b>: IHI = 8003608166895854, Medicare Number = 5950890021</p><p><b>name</b>: Lenny MATTERSON </p><p><b>gender</b>: male</p><p><b>birthDate</b>: 1955-02-06</p><h3>Communications</h3><table class=\"grid\"><tr><td>-</td><td><b>Language</b></td></tr><tr><td>*</td><td>Pitjantjatjara <span style=\"background: LightGoldenRodYellow\">(Details : {urn:ietf:bcp:47 code 'pjt' = 'Pitjantjatjara', given as 'Pitjantjatjara'})</span></td></tr></table></div>"
        },
        "extension": [
          {
            "url": "http://hl7.org.au/fhir/StructureDefinition/indigenous-status",
            "valueCoding": {
              "system": "https://healthterminologies.gov.au/fhir/CodeSystem/australian-indigenous-status-1",
              "code": "1",
              "display": "Aboriginal but not Torres Strait Islander origin"
            }
          }
        ],
        "identifier": [
          {
            "type": {
              "coding": [
                {
                  "system": "http://hl7.org/fhir/v2/0203",
                  "code": "NI",
                  "display": "National unique individual identifier"
                }
              ],
              "text": "IHI"
            },
            "system": "http://ns.electronichealth.net.au/id/hi/ihi/1.0",
            "value": "8003608166895854"
          },
          {
            "type": {
              "coding": [
                {
                  "system": "http://hl7.org/fhir/v2/0203",
                  "code": "MC",
                  "display": "Patient's Medicare Number"
                }
              ],
              "text": "Medicare Number"
            },
            "system": "http://ns.electronichealth.net.au/id/medicare-number",
            "value": "5950890021",
            "period": {
              "end": "2019-05"
            }
          }
        ],
        "name": [
          {
            "family": "MATTERSON",
            "given": [
              "Lenny"
            ],
            "prefix": [
              "Mr."
            ]
          }
        ],
        "gender": "male",
        "birthDate": "1955-02-06",
        "_birthDate": {
          "extension": [
            {
              "url": "http://hl7.org/fhir/StructureDefinition/patient-birthTime",
              "valueDateTime": "1955-02-06T06:17:00+10:00"
            }
          ]
        },
        "communication": [
          {
            "language": {
              "coding": [
                {
                  "system": "urn:ietf:bcp:47",
                  "code": "pjt",
                  "display": "Pitjantjatjara"
                }
              ]
            }
          }
        ]
      }
    },
    {
      "fullUrl": "urn:uuid:91555386-d478-4e3d-bd3d-ac642ff603c4",
      "resource": {
        "resourceType": "PractitionerRole",
        "id": "91555386-d478-4e3d-bd3d-ac642ff603c4",
        "text": {
          "status": "generated",
          "div": "<div xmlns=\"http://www.w3.org/1999/xhtml\"><p><b>Generated Narrative with Details</b></p><p><b>id</b>: 91555386-d478-4e3d-bd3d-ac642ff603c4</p><p><b>identifier</b>: HPI-I = 8003616566708106, Medicare Provider Number = 5544887B</p><p><b>practitioner</b>: <a href=\"#backboneelement_f9695b57-7502-4f50-bf36-b68a755e9956\">Generated Summary: unknown resource entry</a></p><p><b>code</b>: Retail Pharmacist <span style=\"background: LightGoldenRodYellow\">(Details : {http://www.abs.gov.au/ausstats/abs@.nsf/mf/1220.0 code '251513' = '251513', given as 'Retail Pharmacist'})</span></p></div>"
        },
        "identifier": [
          {
            "type": {
              "coding": [
                {
                  "system": "http://hl7.org/fhir/v2/0203",
                  "code": "NPI",
                  "display": "National provider identifier"
                }
              ],
              "text": "HPI-I"
            },
            "system": "http://ns.electronichealth.net.au/id/hi/hpii/1.0",
            "value": "8003616566708106"
          },
          {
            "type": {
              "coding": [
                {
                  "system": "http://hl7.org.au/fhir/v2/0203",
                  "code": "UPIN"
                }
              ],
              "text": "Medicare Provider Number"
            },
            "system": "http://ns.electronichealth.net.au/id/medicare-provider-number",
            "value": "5544887B"
          }
        ],
        "practitioner": {
          "reference": "urn:uuid:f9695b57-7502-4f50-bf36-b68a755e9956"
        },
        "code": [
          {
            "coding": [
              {
                "system": "http://www.abs.gov.au/ausstats/abs@.nsf/mf/1220.0",
                "code": "251513",
                "display": "Retail Pharmacist"
              }
            ]
          }
        ]
      }
    },
    {
      "fullUrl": "urn:uuid:f9695b57-7502-4f50-bf36-b68a755e9956",
      "resource": {
        "resourceType": "Practitioner",
        "id": "f9695b57-7502-4f50-bf36-b68a755e9956",
        "text": {
          "status": "generated",
          "div": "<div xmlns=\"http://www.w3.org/1999/xhtml\"><p><b>Generated Narrative with Details</b></p><p><b>id</b>: f9695b57-7502-4f50-bf36-b68a755e9956</p><p><b>identifier</b>: HPI-I = 8003616566708106</p><p><b>name</b>: Ned DEACON </p><p><b>telecom</b>: fax: 0370102020(WORK)</p><p><b>address</b>: 50034 Queen St, Coburg, VIC 3058(WORK)</p></div>"
        },
        "identifier": [
          {
            "type": {
              "coding": [
                {
                  "system": "http://hl7.org/fhir/v2/0203",
                  "code": "NPI",
                  "display": "National provider identifier"
                }
              ],
              "text": "HPI-I"
            },
            "system": "http://ns.electronichealth.net.au/id/hi/hpii/1.0",
            "value": "8003616566708106"
          }
        ],
        "name": [
          {
            "use": "usual",
            "family": "DEACON",
            "given": [
              "Ned"
            ],
            "prefix": [
              "Mr."
            ]
          }
        ],
        "telecom": [
          {
            "system": "fax",
            "value": "0370102020",
            "use": "work"
          }
        ],
        "address": [
          {
            "use": "work",
            "text": "50034 Queen St, Coburg, VIC 3058"
          }
        ]
      }
    },
    {
      "fullUrl": "urn:uuid:1a8a2450-f190-4511-a24c-a2825a5ae1ee",
      "resource": {
        "resourceType": "Organization",
        "id": "1a8a2450-f190-4511-a24c-a2825a5ae1ee",
        "text": {
          "status": "generated",
          "div": "<div xmlns=\"http://www.w3.org/1999/xhtml\"><p><b>Generated Narrative with Details</b></p><p><b>id</b>: 1a8a2450-f190-4511-a24c-a2825a5ae1ee</p><p><b>identifier</b>: HPI-O = 8003626566699734</p><p><b>name</b>: Big Pharmacy</p></div>"
        },
        "identifier": [
          {
            "type": {
              "coding": [
                {
                  "system": "http://hl7.org.au/fhir/v2/0203",
                  "code": "NOI"
                }
              ],
              "text": "HPI-O"
            },
            "system": "http://ns.electronichealth.net.au/id/hi/hpio/1.0",
            "value": "8003626566699734"
          }
        ],
        "name": "Big Pharmacy"
      }
    },
    {
      "fullUrl": "urn:uuid:c97d9869-3d3b-4612-958d-7af2c1ffd1da",
      "resource": {
        "resourceType": "Encounter",
        "id": "c97d9869-3d3b-4612-958d-7af2c1ffd1da",
        "text": {
          "status": "generated",
          "div": "<div xmlns=\"http://www.w3.org/1999/xhtml\"><p><b>Generated Narrative with Details</b></p><p><b>id</b>: c97d9869-3d3b-4612-958d-7af2c1ffd1da</p><p><b>status</b>: finished</p><p><b>class</b>: home health (Details: http://hl7.org/fhir/v3/ActCode code HH = 'home health', stated as 'home health')</p><p><b>type</b>: Home medicines review <span style=\"background: LightGoldenRodYellow\">(Details : {SNOMED CT code '1348931000168107' = 'Home medicines review', given as 'Home medicines review'})</span></p><p><b>subject</b>: <a href=\"#backboneelement_1fbd9663-b4cd-4a33-9657-650eca3a6b3f\">Generated Summary: unknown resource entry</a></p><p><b>period</b>: 05/02/2019 10:00:00 AM --&gt; 05/02/2019 11:15:00 AM</p></div>"
        },
        "extension": [
          {
            "url": "http://hl7.org.au/fhir/StructureDefinition/encounter-description",
            "valueString": "Patient has his medications packed into blister packs via ABC pharmacy. He finds them easy to use and they promote good adherence to his regime. His Bluecare nurse, Nurse B, was present for the interview. Of the medication listed on the referral, he is not currently taking Aldara 5% cream and Chloramphenicol ointment. In addition to the medication listed on the referral, he is also taking coQ10 150mg tab - 1 nocte.He reports occasional dizziness if he changes position quickly, and does report falling outside in the garden; he wears a falls alarm buzzer. He reports that he generally only experiences chest pain when he becomes stressed (doesn’t like paperwork). His blood pressure at the time of the interview was 158 /76."
          }
        ],
        "status": "finished",
        "class": {
          "system": "http://hl7.org/fhir/v3/ActCode",
          "code": "HH",
          "display": "home health"
        },
        "type": [
          {
            "coding": [
              {
                "system": "http://snomed.info/sct",
                "code": "1348931000168107",
                "display": "Home medicines review"
              }
            ],
            "text": "Home medicines review"
          }
        ],
        "subject": {
          "reference": "urn:uuid:1fbd9663-b4cd-4a33-9657-650eca3a6b3f"
        },
        "period": {
          "start": "2019-02-05T10:00:00+10:00",
          "end": "2019-02-05T11:15:00+10:00"
        }
      }
    },
    {
      "fullUrl": "urn:uuid:05ed5a63-70ab-4dfb-820c-4be0d79bb0d3",
      "resource": {
        "resourceType": "List",
        "id": "05ed5a63-70ab-4dfb-820c-4be0d79bb0d3",
        "language": "en-AU",
        "text": {
          "status": "generated",
          "div": "<div xmlns=\"http://www.w3.org/1999/xhtml\" xml:lang=\"en-AU\" lang=\"en-AU\"><p><b>Generated Narrative with Details</b></p><p><b>id</b>: 05ed5a63-70ab-4dfb-820c-4be0d79bb0d3</p><p><b>language</b>: en-AU</p><p><b>status</b>: current</p><p><b>mode</b>: snapshot</p><p><b>code</b>: Current Medicines <span style=\"background: LightGoldenRodYellow\">(Details : {https://healthterminologies.gov.au/fhir/CodeSystem/nctis-data-components-1 code '101.32009' = '101.32009', given as 'Current Medicines'})</span></p><p><b>subject</b>: <a href=\"#backboneelement_1fbd9663-b4cd-4a33-9657-650eca3a6b3f\">Generated Summary: unknown resource entry</a></p><p><b>encounter</b>: <a href=\"#backboneelement_c97d9869-3d3b-4612-958d-7af2c1ffd1da\">Generated Summary: unknown resource entry</a></p><p><b>date</b>: 2019-02-05</p><p><b>source</b>: <a href=\"#backboneelement_f9695b57-7502-4f50-bf36-b68a755e9956\">Generated Summary: unknown resource entry</a></p><blockquote><p><b>entry</b></p><p><b>flag</b>: Unchanged <span style=\"background: LightGoldenRodYellow\">(Details : {http://hl7.org.au/fhir/CodeSystem/medicine-item-change code 'nochange' = 'Unchanged', given as 'Unchanged'})</span></p><p><b>item</b>: <a href=\"#backboneelement_b8353097-2f90-4397-95e0-b7c6f809b0eb\">Generated Summary: unknown resource entry</a></p></blockquote><blockquote><p><b>entry</b></p><p><b>flag</b>: Unchanged <span style=\"background: LightGoldenRodYellow\">(Details : {http://hl7.org.au/fhir/CodeSystem/medicine-item-change code 'nochange' = 'Unchanged', given as 'Unchanged'})</span></p><p><b>item</b>: <a href=\"#backboneelement_5cde18e4-2b6b-4081-9382-e37abdec5890\">Generated Summary: unknown resource entry</a></p></blockquote><blockquote><p><b>entry</b></p><p><b>flag</b>: New <span style=\"background: LightGoldenRodYellow\">(Details : {http://hl7.org.au/fhir/CodeSystem/medicine-item-change code 'new' = 'New', given as 'New'})</span></p><p><b>item</b>: <a href=\"#backboneelement_466c4379-3133-4498-ba33-94610ef35845\">Generated Summary: unknown resource entry</a></p></blockquote></div>"
        },
        "extension": [
          {
            "url": "http://hl7.org.au/fhir/StructureDefinition/author-role",
            "valueReference": {
              "reference": "urn:uuid:91555386-d478-4e3d-bd3d-ac642ff603c4"
            }
          },
          {
            "url": "http://ns.electronichealth.net.au/ci/fhir/StructureDefinition/packed-in-daa-1",
            "valueCodeableConcept": {
              "coding": [
                {
                  "system": "http://snomed.info/sct",
                  "code": "1469411000168101",
                  "display": "Some medicines packed in dose administration aid"
                }
              ],
              "text": "Some medicines packed in dose administration aid"
            }
          }
        ],
        "status": "current",
        "mode": "snapshot",
        "code": {
          "coding": [
            {
              "system": "https://healthterminologies.gov.au/fhir/CodeSystem/nctis-data-components-1",
              "code": "101.32009",
              "display": "Current Medicines"
            }
          ]
        },
        "subject": {
          "reference": "urn:uuid:1fbd9663-b4cd-4a33-9657-650eca3a6b3f"
        },
        "encounter": {
          "reference": "urn:uuid:c97d9869-3d3b-4612-958d-7af2c1ffd1da"
        },
        "date": "2019-02-05",
        "source": {
          "reference": "urn:uuid:f9695b57-7502-4f50-bf36-b68a755e9956"
        },
        "entry": [
          {
            "flag": {
              "coding": [
                {
                  "system": "http://hl7.org.au/fhir/CodeSystem/medicine-item-change",
                  "code": "nochange",
                  "display": "Unchanged"
                }
              ]
            },
            "item": {
              "reference": "urn:uuid:b8353097-2f90-4397-95e0-b7c6f809b0eb"
            }
          },
          {
            "flag": {
              "coding": [
                {
                  "system": "http://hl7.org.au/fhir/CodeSystem/medicine-item-change",
                  "code": "nochange",
                  "display": "Unchanged"
                }
              ]
            },
            "item": {
              "reference": "urn:uuid:5cde18e4-2b6b-4081-9382-e37abdec5890"
            }
          },
          {
            "extension": [
              {
                "url": "http://hl7.org.au/fhir/StructureDefinition/change-description",
                "valueString": "New finding of Atrial fibrillation"
              }
            ],
            "flag": {
              "coding": [
                {
                  "system": "http://hl7.org.au/fhir/CodeSystem/medicine-item-change",
                  "code": "new",
                  "display": "New"
                }
              ]
            },
            "item": {
              "reference": "urn:uuid:466c4379-3133-4498-ba33-94610ef35845"
            }
          }
        ]
      }
    },
    {
      "fullUrl": "urn:uuid:b8353097-2f90-4397-95e0-b7c6f809b0eb",
      "resource": {
        "resourceType": "MedicationStatement",
        "id": "b8353097-2f90-4397-95e0-b7c6f809b0eb",
        "text": {
          "status": "generated",
          "div": "<div xmlns=\"http://www.w3.org/1999/xhtml\"><p><b>Generated Narrative with Details</b></p><p><b>id</b>: b8353097-2f90-4397-95e0-b7c6f809b0eb</p><p><b>status</b>: active</p><p><b>medication</b>: <a href=\"#backboneelement_c75149aa-8bdd-401b-a234-3e533991cd92\">Generated Summary: unknown resource entry</a></p><p><b>subject</b>: <a href=\"#backboneelement_1fbd9663-b4cd-4a33-9657-650eca3a6b3f\">Generated Summary: unknown resource entry</a></p><p><b>taken</b>: y</p><p><b>dosage</b>: </p></div>"
        },
        "status": "active",
        "medicationReference": {
          "reference": "urn:uuid:c75149aa-8bdd-401b-a234-3e533991cd92"
        },
        "subject": {
          "reference": "urn:uuid:1fbd9663-b4cd-4a33-9657-650eca3a6b3f"
        },
        "taken": "y",
        "dosage": [
          {
            "text": "1 in the morning"
          }
        ]
      }
    },
    {
      "fullUrl": "urn:uuid:c75149aa-8bdd-401b-a234-3e533991cd92",
      "resource": {
        "resourceType": "Medication",
        "id": "c75149aa-8bdd-401b-a234-3e533991cd92",
        "text": {
          "status": "generated",
          "div": "<div xmlns=\"http://www.w3.org/1999/xhtml\"><p><b>Generated Narrative with Details</b></p><p><b>id</b>: c75149aa-8bdd-401b-a234-3e533991cd92</p><p><b>code</b>: Amiodarone 200mg tab <span style=\"background: LightGoldenRodYellow\">(Details )</span></p></div>"
        },
        "code": {
          "text": "Amiodarone 200mg tab"
        }
      }
    },
    {
      "fullUrl": "urn:uuid:5cde18e4-2b6b-4081-9382-e37abdec5890",
      "resource": {
        "resourceType": "MedicationStatement",
        "id": "5cde18e4-2b6b-4081-9382-e37abdec5890",
        "text": {
          "status": "generated",
          "div": "<div xmlns=\"http://www.w3.org/1999/xhtml\"><p><b>Generated Narrative with Details</b></p><p><b>id</b>: 5cde18e4-2b6b-4081-9382-e37abdec5890</p><p><b>status</b>: active</p><p><b>medication</b>: <a href=\"#backboneelement_8a484362-afb0-4c28-b40b-d1a2ae677de3\">Generated Summary: unknown resource entry</a></p><p><b>subject</b>: <a href=\"#backboneelement_1fbd9663-b4cd-4a33-9657-650eca3a6b3f\">Generated Summary: unknown resource entry</a></p><p><b>taken</b>: y</p><p><b>dosage</b>: </p></div>"
        },
        "status": "active",
        "medicationReference": {
          "reference": "urn:uuid:8a484362-afb0-4c28-b40b-d1a2ae677de3"
        },
        "subject": {
          "reference": "urn:uuid:1fbd9663-b4cd-4a33-9657-650eca3a6b3f"
        },
        "taken": "y",
        "dosage": [
          {
            "text": "1/2 tablet in the morning"
          }
        ]
      }
    },
    {
      "fullUrl": "urn:uuid:8a484362-afb0-4c28-b40b-d1a2ae677de3",
      "resource": {
        "resourceType": "Medication",
        "id": "8a484362-afb0-4c28-b40b-d1a2ae677de3",
        "text": {
          "status": "generated",
          "div": "<div xmlns=\"http://www.w3.org/1999/xhtml\"><p><b>Generated Narrative with Details</b></p><p><b>id</b>: 8a484362-afb0-4c28-b40b-d1a2ae677de3</p><p><b>code</b>: Bisoprolol 2.5mg tab <span style=\"background: LightGoldenRodYellow\">(Details : {SNOMED CT code '23281011000036106' = 'bisoprolol fumarate 2.5 mg tablet', given as 'bisoprolol fumarate 2.5 mg tablet'})</span></p></div>"
        },
        "code": {
          "coding": [
            {
              "system": "http://snomed.info/sct",
              "code": "23281011000036106",
              "display": "bisoprolol fumarate 2.5 mg tablet"
            }
          ],
          "text": "Bisoprolol 2.5mg tab"
        }
      }
    },
    {
      "fullUrl": "urn:uuid:466c4379-3133-4498-ba33-94610ef35845",
      "resource": {
        "resourceType": "MedicationStatement",
        "id": "466c4379-3133-4498-ba33-94610ef35845",
        "text": {
          "status": "generated",
          "div": "<div xmlns=\"http://www.w3.org/1999/xhtml\"><p><b>Generated Narrative with Details</b></p><p><b>id</b>: 466c4379-3133-4498-ba33-94610ef35845</p><p><b>status</b>: intended</p><p><b>medication</b>: <a href=\"#backboneelement_cd5a6cac-f6e5-4aa8-b497-6b0e903442cd\">Generated Summary: unknown resource entry</a></p><p><b>subject</b>: <a href=\"#backboneelement_1fbd9663-b4cd-4a33-9657-650eca3a6b3f\">Generated Summary: unknown resource entry</a></p><p><b>taken</b>: y</p><p><b>dosage</b>: </p></div>"
        },
        "status": "intended",
        "medicationReference": {
          "reference": "urn:uuid:cd5a6cac-f6e5-4aa8-b497-6b0e903442cd"
        },
        "subject": {
          "reference": "urn:uuid:1fbd9663-b4cd-4a33-9657-650eca3a6b3f"
        },
        "taken": "y",
        "dosage": [
          {
            "text": "1 at night"
          }
        ]
      }
    },
    {
      "fullUrl": "urn:uuid:cd5a6cac-f6e5-4aa8-b497-6b0e903442cd",
      "resource": {
        "resourceType": "Medication",
        "id": "cd5a6cac-f6e5-4aa8-b497-6b0e903442cd",
        "text": {
          "status": "generated",
          "div": "<div xmlns=\"http://www.w3.org/1999/xhtml\"><p><b>Generated Narrative with Details</b></p><p><b>id</b>: cd5a6cac-f6e5-4aa8-b497-6b0e903442cd</p><p><b>code</b>: CoQ10 150mg tab <span style=\"background: LightGoldenRodYellow\">(Details : {SNOMED CT code '920941011000036100' = 'CoQ10 (Blackmores)', given as 'CoQ10 (Blackmores)'})</span></p></div>"
        },
        "code": {
          "coding": [
            {
              "system": "http://snomed.info/sct",
              "code": "920941011000036100",
              "display": "CoQ10 (Blackmores)"
            }
          ],
          "text": "CoQ10 150mg tab"
        }
      }
    },
    {
      "fullUrl": "urn:uuid:c0c68add-8f8f-472e-98f3-ffcb0b6e016b",
      "resource": {
        "resourceType": "List",
        "id": "c0c68add-8f8f-472e-98f3-ffcb0b6e016b",
        "meta": {
          "profile": [
            "http://ns.electronichealth.net.au/ci/fhir/3.0/StructureDefinition/list-sml-pracchanges-1"
          ]
        },
        "language": "en-AU",
        "text": {
          "status": "generated",
          "div": "<div xmlns=\"http://www.w3.org/1999/xhtml\" xml:lang=\"en-AU\" lang=\"en-AU\"><p><b>Generated Narrative with Details</b></p><p><b>id</b>: c0c68add-8f8f-472e-98f3-ffcb0b6e016b</p><p><b>meta</b>: </p><p><b>language</b>: en-AU</p><p><b>status</b>: current</p><p><b>mode</b>: snapshot</p><p><b>code</b>: Ceased Medicines <span style=\"background: LightGoldenRodYellow\">(Details : {https://healthterminologies.gov.au/fhir/CodeSystem/nctis-data-components-1 code '101.32027' = '101.32027', given as 'Ceased Medicines'})</span></p><p><b>subject</b>: <a href=\"#backboneelement_1fbd9663-b4cd-4a33-9657-650eca3a6b3f\">Generated Summary: unknown resource entry</a></p><p><b>date</b>: 2019-02-05</p><p><b>source</b>: <a href=\"#backboneelement_f9695b57-7502-4f50-bf36-b68a755e9956\">Generated Summary: unknown resource entry</a></p><blockquote><p><b>entry</b></p><p><b>flag</b>: Ceased <span style=\"background: LightGoldenRodYellow\">(Details : {http://hl7.org.au/fhir/CodeSystem/medicine-item-change code 'ceased' = 'Ceased', given as 'Ceased'})</span></p><p><b>item</b>: <a href=\"#backboneelement_99d5fa08-35cd-47cc-9728-896476791b15\">Generated Summary: unknown resource entry</a></p></blockquote><blockquote><p><b>entry</b></p><p><b>flag</b>: Ceased <span style=\"background: LightGoldenRodYellow\">(Details : {http://hl7.org.au/fhir/CodeSystem/medicine-item-change code 'ceased' = 'Ceased', given as 'Ceased'})</span></p><p><b>item</b>: <a href=\"#backboneelement_c753dc46-f390-47c5-8760-241a3242279f\">Generated Summary: unknown resource entry</a></p></blockquote></div>"
        },
        "extension": [
          {
            "url": "http://hl7.org.au/fhir/StructureDefinition/author-role",
            "valueReference": {
              "reference": "urn:uuid:91555386-d478-4e3d-bd3d-ac642ff603c4"
            }
          },
          {
            "url": "http://ns.electronichealth.net.au/ci/fhir/StructureDefinition/packed-in-daa-1",
            "valueCodeableConcept": {
              "coding": [
                {
                  "system": "http://snomed.info/sct",
                  "code": "1469421000168108",
                  "display": "No medicines packed in dose administration aid"
                }
              ],
              "text": "No medicines packed in dose administration aid"
            }
          }
        ],
        "status": "current",
        "mode": "snapshot",
        "code": {
          "coding": [
            {
              "system": "https://healthterminologies.gov.au/fhir/CodeSystem/nctis-data-components-1",
              "code": "101.32027",
              "display": "Ceased Medicines"
            }
          ]
        },
        "subject": {
          "reference": "urn:uuid:1fbd9663-b4cd-4a33-9657-650eca3a6b3f"
        },
        "date": "2019-02-05",
        "source": {
          "reference": "urn:uuid:f9695b57-7502-4f50-bf36-b68a755e9956"
        },
        "entry": [
          {
            "extension": [
              {
                "url": "http://hl7.org.au/fhir/StructureDefinition/change-description",
                "valueString": "Completed 8-week course"
              }
            ],
            "flag": {
              "coding": [
                {
                  "system": "http://hl7.org.au/fhir/CodeSystem/medicine-item-change",
                  "code": "ceased",
                  "display": "Ceased"
                }
              ]
            },
            "item": {
              "reference": "urn:uuid:99d5fa08-35cd-47cc-9728-896476791b15"
            }
          },
          {
            "extension": [
              {
                "url": "http://hl7.org.au/fhir/StructureDefinition/change-description",
                "valueString": "Stopped due to burning sensation in the eye."
              }
            ],
            "flag": {
              "coding": [
                {
                  "system": "http://hl7.org.au/fhir/CodeSystem/medicine-item-change",
                  "code": "ceased",
                  "display": "Ceased"
                }
              ]
            },
            "item": {
              "reference": "urn:uuid:c753dc46-f390-47c5-8760-241a3242279f"
            }
          }
        ]
      }
    },
    {
      "fullUrl": "urn:uuid:99d5fa08-35cd-47cc-9728-896476791b15",
      "resource": {
        "resourceType": "MedicationStatement",
        "id": "99d5fa08-35cd-47cc-9728-896476791b15",
        "text": {
          "status": "generated",
          "div": "<div xmlns=\"http://www.w3.org/1999/xhtml\"><p><b>Generated Narrative with Details</b></p><p><b>id</b>: 99d5fa08-35cd-47cc-9728-896476791b15</p><p><b>status</b>: completed</p><p><b>medication</b>: <a href=\"#backboneelement_84d6b33a-ffe3-42e1-8a97-2f32c611d1ed\">Generated Summary: unknown resource entry</a></p><p><b>subject</b>: <a href=\"#backboneelement_1fbd9663-b4cd-4a33-9657-650eca3a6b3f\">Generated Summary: unknown resource entry</a></p><p><b>taken</b>: y</p></div>"
        },
        "status": "completed",
        "medicationReference": {
          "reference": "urn:uuid:84d6b33a-ffe3-42e1-8a97-2f32c611d1ed"
        },
        "subject": {
          "reference": "urn:uuid:1fbd9663-b4cd-4a33-9657-650eca3a6b3f"
        },
        "taken": "y"
      }
    },
    {
      "fullUrl": "urn:uuid:84d6b33a-ffe3-42e1-8a97-2f32c611d1ed",
      "resource": {
        "resourceType": "Medication",
        "id": "84d6b33a-ffe3-42e1-8a97-2f32c611d1ed",
        "text": {
          "status": "generated",
          "div": "<div xmlns=\"http://www.w3.org/1999/xhtml\"><p><b>Generated Narrative with Details</b></p><p><b>id</b>: 84d6b33a-ffe3-42e1-8a97-2f32c611d1ed</p><p><b>code</b>: Aldara 5% cream <span style=\"background: LightGoldenRodYellow\">(Details : {SNOMED CT code '119411000036106' = 'Aldara 5% cream', given as 'Aldara 5% cream'})</span></p></div>"
        },
        "code": {
          "coding": [
            {
              "system": "http://snomed.info/sct",
              "code": "119411000036106",
              "display": "Aldara 5% cream"
            }
          ],
          "text": "Aldara 5% cream"
        }
      }
    },
    {
      "fullUrl": "urn:uuid:c753dc46-f390-47c5-8760-241a3242279f",
      "resource": {
        "resourceType": "MedicationStatement",
        "id": "c753dc46-f390-47c5-8760-241a3242279f",
        "text": {
          "status": "generated",
          "div": "<div xmlns=\"http://www.w3.org/1999/xhtml\"><p><b>Generated Narrative with Details</b></p><p><b>id</b>: c753dc46-f390-47c5-8760-241a3242279f</p><p><b>status</b>: completed</p><p><b>medication</b>: <a href=\"#backboneelement_f33a47d5-bc8f-4013-ae1e-53b0cf5e26ed\">Generated Summary: unknown resource entry</a></p><p><b>subject</b>: <a href=\"#backboneelement_1fbd9663-b4cd-4a33-9657-650eca3a6b3f\">Generated Summary: unknown resource entry</a></p><p><b>taken</b>: y</p></div>"
        },
        "status": "completed",
        "medicationReference": {
          "reference": "urn:uuid:f33a47d5-bc8f-4013-ae1e-53b0cf5e26ed"
        },
        "subject": {
          "reference": "urn:uuid:1fbd9663-b4cd-4a33-9657-650eca3a6b3f"
        },
        "taken": "y"
      }
    },
    {
      "fullUrl": "urn:uuid:f33a47d5-bc8f-4013-ae1e-53b0cf5e26ed",
      "resource": {
        "resourceType": "Medication",
        "id": "f33a47d5-bc8f-4013-ae1e-53b0cf5e26ed",
        "text": {
          "status": "generated",
          "div": "<div xmlns=\"http://www.w3.org/1999/xhtml\"><p><b>Generated Narrative with Details</b></p><p><b>id</b>: f33a47d5-bc8f-4013-ae1e-53b0cf5e26ed</p><p><b>code</b>: Chloramphenicol 1% eye ointment <span style=\"background: LightGoldenRodYellow\">(Details : {SNOMED CT code '22717011000036101' = 'chloramphenicol 1% eye ointment', given as 'chloramphenicol 1% eye ointment'})</span></p></div>"
        },
        "code": {
          "coding": [
            {
              "system": "http://snomed.info/sct",
              "code": "22717011000036101",
              "display": "chloramphenicol 1% eye ointment"
            }
          ],
          "text": "Chloramphenicol 1% eye ointment"
        }
      }
    }
  ]
}