{
  "resourceType": "Bundle",
  "id": "e32a01d0-2610-4c99-ba46-9732aa975d41",
  "meta": {
    "lastUpdated": "2018-12-11T13:30:00+10:00"
  },
  "identifier": {
    "system": "urn:ietf:rfc:3986",
    "value": "urn:uuid:b8ee2120-18dc-420b-9f6a-d114eda7315b"
  },
  "type": "document",
  "entry": [
    {
      "fullUrl": "urn:uuid:c6f90150-465c-4c16-8e99-c4efbda29036",
      "resource": {
        "resourceType": "Composition",
        "id": "c6f90150-465c-4c16-8e99-c4efbda29036",
        "meta": {
          "profile": [
            "http://ns.electronichealth.net.au/ci/fhir/3.0/StructureDefinition/composition-sml-prac-1"
          ]
        },
        "language": "en-AU",
        "text": {
          "status": "additional",
          "div": "<div xmlns=\"http://www.w3.org/1999/xhtml\" lang=\"en-AU\">\n\n                        <table style=\"border-collapse:collapse;border-spacing:0;width:100%;\">\n                            <tr>\n                                <th colspan=\"4\" style=\"border-collapse:collapse;border-spacing:0;font-family:Arial, sans-serif;padding:10px 5px;border-style:solid;border-width:1px;overflow:hidden;word-break:normal;border-color:black;font-weight:bold;font-size:20px;background-color:#333333;color:#ffffff;border:none;text-align:center;vertical-align:top\">Pharmacist Shared Medicines List</th>\n                            </tr>\n                            <tr>\n                                <td colspan=\"4\" style=\"border-collapse:collapse;border-spacing:0;font-family:Arial, sans-serif;font-size:14px;padding:10px 5px;border-style:solid;border-width:1px;overflow:hidden;word-break:normal;border-color:black;font-weight:bold;background-color:#333333;color:#ffffff;border-color:#000000;text-align:center;vertical-align:top\">11 Dec 2018 01:30 PM </td>\n                            </tr>\n                            <tr>\n                                <td style=\"border-collapse:collapse;border-spacing:0;font-family:Arial, sans-serif;font-size:14px;padding:10px 5px;border-style:solid;border-width:1px;overflow:hidden;word-break:normal;border-color:black;background-color:#333333;color:#ffffff;border-color:#000000;text-align:center;vertical-align:top\">Mac PRIEST</td>\n                                <td style=\"border-collapse:collapse;border-spacing:0;font-family:Arial, sans-serif;font-size:14px;padding:10px 5px;border-style:solid;border-width:1px;overflow:hidden;word-break:normal;border-color:black;background-color:#333333;color:#ffffff;border-color:#000000;text-align:center;vertical-align:top\">DoB 9 Mar 1989 (30 yrs) </td>\n                                <td style=\"border-collapse:collapse;border-spacing:0;font-family:Arial, sans-serif;font-size:14px;padding:10px 5px;border-style:solid;border-width:1px;overflow:hidden;word-break:normal;border-color:black;background-color:#333333;color:#ffffff;border-color:#000000;text-align:center;vertical-align:top\">Gender MALE</td>\n                                <td style=\"border-collapse:collapse;border-spacing:0;font-family:Arial, sans-serif;font-size:14px;padding:10px 5px;border-style:solid;border-width:1px;overflow:hidden;word-break:normal;border-color:black;background-color:#333333;color:#ffffff;border-color:#000000;text-align:center;vertical-align:top\">IHI 8003608333563104 </td>\n                            </tr>\n                        </table>\n\n                        <h3>Test Org - Retail Pharmacy</h3>\n                        <p><b>Address: </b>570 Watcha St, GLEBE, NSW 2037 AU</p>\n                        <p><b>HPI-O: </b>8003629900033370</p>\n                        <p><b>Pharmacist:</b> Mr. Zane Sinclair (HPI-I: 8003611566708354)</p>\n                        <p><b>Email:</b> zsin@gmail.com (work)</p>\n                        <p><b>General Practitioner: </b>Test Medical Centre</p>\n                        \n                        <h3>Encounter Details</h3>\n                        <table style=\"border-collapse:collapse;border-spacing:0;width:100%;\">\n                            <tr>\n                                <th style=\"border-collapse:collapse;border-spacing:0;font-family:Arial, sans-serif;font-size:14px;font-weight:normal;padding:10px 5px;border-style:solid;border-width:1px;overflow:hidden;word-break:normal;border-color:black;font-weight:bold;background-color:#9b9b9b;border-color:#000000;text-align:left;vertical-align:top\">Description</th>\n                                <th style=\"border-collapse:collapse;border-spacing:0;font-family:Arial, sans-serif;font-size:14px;font-weight:normal;padding:10px 5px;border-style:solid;border-width:1px;overflow:hidden;word-break:normal;border-color:black;font-weight:bold;background-color:#9b9b9b;border-color:#000000;text-align:left;vertical-align:top\">Start</th>\n                                <th style=\"border-collapse:collapse;border-spacing:0;font-family:Arial, sans-serif;font-size:14px;font-weight:normal;padding:10px 5px;border-style:solid;border-width:1px;overflow:hidden;word-break:normal;border-color:black;font-weight:bold;background-color:#9b9b9b;border-color:#000000;text-align:left;vertical-align:top\">End</th>\n                            </tr>\n                            <tr>\n                                <td style=\"border-collapse:collapse;border-spacing:0;font-family:Arial, sans-serif;font-size:14px;padding:10px 5px;border-style:solid;border-width:1px;overflow:hidden;word-break:normal;border-color:black;border-color:#000000;text-align:left;vertical-align:top\">Community pharmacy medicine review</td>\n                                <td style=\"border-collapse:collapse;border-spacing:0;font-family:Arial, sans-serif;font-size:14px;padding:10px 5px;border-style:solid;border-width:1px;overflow:hidden;word-break:normal;border-color:black;border-color:#000000;text-align:left;vertical-align:top\">11/12/2018 10:00 AM</td>\n                                <td style=\"border-collapse:collapse;border-spacing:0;font-family:Arial, sans-serif;font-size:14px;padding:10px 5px;border-style:solid;border-width:1px;overflow:hidden;word-break:normal;border-color:black;border-color:#000000;text-align:left;vertical-align:top\">11/12/2018 12:30 PM</td>\n                            </tr>\n                        </table>\n\n                        <h3 style=\"color:red\">Allergies</h3>\n                        <table style=\"border-collapse:collapse;border-spacing:0;width:100%;\">\n                            <caption>Allergies</caption>\n                            <tr>\n                                <th style=\"border-collapse:collapse;border-spacing:0;font-family:Arial, sans-serif;font-size:14px;font-weight:normal;padding:10px 5px;border-style:solid;border-width:1px;overflow:hidden;word-break:normal;border-color:black;font-weight:bold;background-color:#9b9b9b;border-color:#000000;text-align:left;vertical-align:top\">Substance/Agent</th>\n                                <th style=\"border-collapse:collapse;border-spacing:0;font-family:Arial, sans-serif;font-size:14px;font-weight:normal;padding:10px 5px;border-style:solid;border-width:1px;overflow:hidden;word-break:normal;border-color:black;font-weight:bold;background-color:#9b9b9b;border-color:#000000;text-align:left;vertical-align:top\">Reaction Type</th>\n                                <th style=\"border-collapse:collapse;border-spacing:0;font-family:Arial, sans-serif;font-size:14px;font-weight:normal;padding:10px 5px;border-style:solid;border-width:1px;overflow:hidden;word-break:normal;border-color:black;font-weight:bold;background-color:#9b9b9b;border-color:#000000;text-align:left;vertical-align:top\">Reaction</th>\n                                <th style=\"border-collapse:collapse;border-spacing:0;font-family:Arial, sans-serif;font-size:14px;font-weight:normal;padding:10px 5px;border-style:solid;border-width:1px;overflow:hidden;word-break:normal;border-color:black;font-weight:bold;background-color:#9b9b9b;border-color:#000000;text-align:left;vertical-align:top\">Reaction Onset Date</th>\n                            </tr>\n                            <tr>\n                                <td style=\"border-collapse:collapse;border-spacing:0;font-family:Arial, sans-serif;font-size:14px;padding:10px 5px;border-style:solid;border-width:1px;overflow:hidden;word-break:normal;border-color:black;border-color:#000000;text-align:left;vertical-align:top\">ibuprofen</td>\n                                <td style=\"border-collapse:collapse;border-spacing:0;font-family:Arial, sans-serif;font-size:14px;padding:10px 5px;border-style:solid;border-width:1px;overflow:hidden;word-break:normal;border-color:black;border-color:#000000;text-align:left;vertical-align:top\">Allergic reaction</td>\n                                <td style=\"border-collapse:collapse;border-spacing:0;font-family:Arial, sans-serif;font-size:14px;padding:10px 5px;border-style:solid;border-width:1px;overflow:hidden;word-break:normal;border-color:black;border-color:#000000;text-align:left;vertical-align:top\">Anaphylaxis</td>\n                                <td style=\"border-collapse:collapse;border-spacing:0;font-family:Arial, sans-serif;font-size:14px;padding:10px 5px;border-style:solid;border-width:1px;overflow:hidden;word-break:normal;border-color:black;border-color:#000000;text-align:left;vertical-align:top\">October 2016</td>\n                            </tr>\n                        </table>\n\n                        <h3>Medicines List</h3>\n                        <table style=\"border-collapse:collapse;border-spacing:0;width:100%;\">\n                            <caption>Current medicines</caption>\n                            <tr>\n                                <th style=\"border-collapse:collapse;border-spacing:0;font-family:Arial, sans-serif;font-size:14px;font-weight:normal;padding:10px 5px;border-style:solid;border-width:1px;overflow:hidden;word-break:normal;border-color:black;font-weight:bold;background-color:#9b9b9b;border-color:#000000;text-align:left;vertical-align:top\">Medicine</th>\n                                <th style=\"border-collapse:collapse;border-spacing:0;font-family:Arial, sans-serif;font-size:14px;font-weight:normal;padding:10px 5px;border-style:solid;border-width:1px;overflow:hidden;word-break:normal;border-color:black;font-weight:bold;background-color:#9b9b9b;border-color:#000000;text-align:left;vertical-align:top\">Brand Name</th>\n                                <th style=\"border-collapse:collapse;border-spacing:0;font-family:Arial, sans-serif;font-size:14px;font-weight:normal;padding:10px 5px;border-style:solid;border-width:1px;overflow:hidden;word-break:normal;border-color:black;font-weight:bold;background-color:#9b9b9b;border-color:#000000;text-align:left;vertical-align:top\">Direction</th>\n                                <th style=\"border-collapse:collapse;border-spacing:0;font-family:Arial, sans-serif;font-size:14px;font-weight:normal;padding:10px 5px;border-style:solid;border-width:1px;overflow:hidden;word-break:normal;border-color:black;font-weight:bold;background-color:#9b9b9b;border-color:#000000;text-align:left;vertical-align:top\">Medicine Purpose</th>\n                                <th style=\"border-collapse:collapse;border-spacing:0;font-family:Arial, sans-serif;font-size:14px;font-weight:normal;padding:10px 5px;border-style:solid;border-width:1px;overflow:hidden;word-break:normal;border-color:black;font-weight:bold;background-color:#9b9b9b;border-color:#000000;text-align:left;vertical-align:top\">Medicine Status</th>\n                                <th style=\"border-collapse:collapse;border-spacing:0;font-family:Arial, sans-serif;font-size:14px;font-weight:normal;padding:10px 5px;border-style:solid;border-width:1px;overflow:hidden;word-break:normal;border-color:black;font-weight:bold;background-color:#9b9b9b;border-color:#000000;text-align:left;vertical-align:top\">Expected End Date</th>\n                                <th style=\"border-collapse:collapse;border-spacing:0;font-family:Arial, sans-serif;font-size:14px;font-weight:normal;padding:10px 5px;border-style:solid;border-width:1px;overflow:hidden;word-break:normal;border-color:black;font-weight:bold;background-color:#9b9b9b;border-color:#000000;text-align:left;vertical-align:top\">Special Instructions</th>\n                                <th style=\"border-collapse:collapse;border-spacing:0;font-family:Arial, sans-serif;font-size:14px;font-weight:normal;padding:10px 5px;border-style:solid;border-width:1px;overflow:hidden;word-break:normal;border-color:black;font-weight:bold;background-color:#9b9b9b;border-color:#000000;text-align:left;vertical-align:top\">Medicine Image</th>\n                                <th style=\"border-collapse:collapse;border-spacing:0;font-family:Arial, sans-serif;font-size:14px;font-weight:normal;padding:10px 5px;border-style:solid;border-width:1px;overflow:hidden;word-break:normal;border-color:black;font-weight:bold;background-color:#9b9b9b;border-color:#000000;text-align:left;vertical-align:top\">Physical Description</th>\n                            </tr>\n                            <tr>\n                                <td style=\"border-collapse:collapse;border-spacing:0;font-family:Arial, sans-serif;font-size:14px;padding:10px 5px;border-style:solid;border-width:1px;overflow:hidden;word-break:normal;border-color:black;border-color:#000000;text-align:left;vertical-align:top\"/>\n                                <td style=\"border-collapse:collapse;border-spacing:0;font-family:Arial, sans-serif;font-size:14px;padding:10px 5px;border-style:solid;border-width:1px;overflow:hidden;word-break:normal;border-color:black;border-color:#000000;text-align:left;vertical-align:top\">Ferro-Grad C</td>\n                                <td style=\"border-collapse:collapse;border-spacing:0;font-family:Arial, sans-serif;font-size:14px;padding:10px 5px;border-style:solid;border-width:1px;overflow:hidden;word-break:normal;border-color:black;border-color:#000000;text-align:left;vertical-align:top\">Take one tablet daily</td>\n                                <td style=\"border-collapse:collapse;border-spacing:0;font-family:Arial, sans-serif;font-size:14px;padding:10px 5px;border-style:solid;border-width:1px;overflow:hidden;word-break:normal;border-color:black;border-color:#000000;text-align:left;vertical-align:top\">Iron supplement</td>\n                                <td style=\"border-collapse:collapse;border-spacing:0;font-family:Arial, sans-serif;font-size:14px;padding:10px 5px;border-style:solid;border-width:1px;overflow:hidden;word-break:normal;border-color:black;border-color:#000000;text-align:left;vertical-align:top\">Unchanged</td>\n                                <td style=\"border-collapse:collapse;border-spacing:0;font-family:Arial, sans-serif;font-size:14px;padding:10px 5px;border-style:solid;border-width:1px;overflow:hidden;word-break:normal;border-color:black;border-color:#000000;text-align:left;vertical-align:top\"/>\n                                <td style=\"border-collapse:collapse;border-spacing:0;font-family:Arial, sans-serif;font-size:14px;padding:10px 5px;border-style:solid;border-width:1px;overflow:hidden;word-break:normal;border-color:black;border-color:#000000;text-align:left;vertical-align:top\"/>\n                                <td style=\"border-collapse:collapse;border-spacing:0;font-family:Arial, sans-serif;font-size:14px;padding:10px 5px;border-style:solid;border-width:1px;overflow:hidden;word-break:normal;border-color:black;border-color:#000000;text-align:left;vertical-align:top\"/>\n                                <td style=\"border-collapse:collapse;border-spacing:0;font-family:Arial, sans-serif;font-size:14px;padding:10px 5px;border-style:solid;border-width:1px;overflow:hidden;word-break:normal;border-color:black;border-color:#000000;text-align:left;vertical-align:top\"/>\n                            </tr>\n                            <tr>\n                                <td style=\"border-collapse:collapse;border-spacing:0;font-family:Arial, sans-serif;font-size:14px;padding:10px 5px;border-style:solid;border-width:1px;overflow:hidden;word-break:normal;border-color:black;border-color:#000000;text-align:left;vertical-align:top\">Amoxicillin 875 mg + clavulanic acid 125 mg tablet</td>\n                                <td style=\"border-collapse:collapse;border-spacing:0;font-family:Arial, sans-serif;font-size:14px;padding:10px 5px;border-style:solid;border-width:1px;overflow:hidden;word-break:normal;border-color:black;border-color:#000000;text-align:left;vertical-align:top\">Augmentin Duo Forte</td>\n                                <td style=\"border-collapse:collapse;border-spacing:0;font-family:Arial, sans-serif;font-size:14px;padding:10px 5px;border-style:solid;border-width:1px;overflow:hidden;word-break:normal;border-color:black;border-color:#000000;text-align:left;vertical-align:top\">Take one tablet twice a day</td>\n                                <td style=\"border-collapse:collapse;border-spacing:0;font-family:Arial, sans-serif;font-size:14px;padding:10px 5px;border-style:solid;border-width:1px;overflow:hidden;word-break:normal;border-color:black;border-color:#000000;text-align:left;vertical-align:top\">Chest infection</td>\n                                <td style=\"border-collapse:collapse;border-spacing:0;font-family:Arial, sans-serif;font-size:14px;padding:10px 5px;border-style:solid;border-width:1px;overflow:hidden;word-break:normal;border-color:black;border-color:#000000;text-align:left;vertical-align:top\">New</td>\n                                <td style=\"border-collapse:collapse;border-spacing:0;font-family:Arial, sans-serif;font-size:14px;padding:10px 5px;border-style:solid;border-width:1px;overflow:hidden;word-break:normal;border-color:black;border-color:#000000;text-align:left;vertical-align:top\">20/01/2019</td>\n                                <td style=\"border-collapse:collapse;border-spacing:0;font-family:Arial, sans-serif;font-size:14px;padding:10px 5px;border-style:solid;border-width:1px;overflow:hidden;word-break:normal;border-color:black;border-color:#000000;text-align:left;vertical-align:top\"/>\n                                <td style=\"border-collapse:collapse;border-spacing:0;font-family:Arial, sans-serif;font-size:14px;padding:10px 5px;border-style:solid;border-width:1px;overflow:hidden;word-break:normal;border-color:black;border-color:#000000;text-align:left;vertical-align:top\"/>\n                                <td style=\"border-collapse:collapse;border-spacing:0;font-family:Arial, sans-serif;font-size:14px;padding:10px 5px;border-style:solid;border-width:1px;overflow:hidden;word-break:normal;border-color:black;border-color:#000000;text-align:left;vertical-align:top\"/>\n                            </tr>\n                            <tr>\n                                <td style=\"border-collapse:collapse;border-spacing:0;font-family:Arial, sans-serif;font-size:14px;padding:10px 5px;border-style:solid;border-width:1px;overflow:hidden;word-break:normal;border-color:black;border-color:#000000;text-align:left;vertical-align:top\">Metformin 500mg tablet</td>\n                                <td style=\"border-collapse:collapse;border-spacing:0;font-family:Arial, sans-serif;font-size:14px;padding:10px 5px;border-style:solid;border-width:1px;overflow:hidden;word-break:normal;border-color:black;border-color:#000000;text-align:left;vertical-align:top\">Sandoz</td>\n                                <td style=\"border-collapse:collapse;border-spacing:0;font-family:Arial, sans-serif;font-size:14px;padding:10px 5px;border-style:solid;border-width:1px;overflow:hidden;word-break:normal;border-color:black;border-color:#000000;text-align:left;vertical-align:top\">Take one tablet twice a day</td>\n                                <td style=\"border-collapse:collapse;border-spacing:0;font-family:Arial, sans-serif;font-size:14px;padding:10px 5px;border-style:solid;border-width:1px;overflow:hidden;word-break:normal;border-color:black;border-color:#000000;text-align:left;vertical-align:top\">Reduce blood sugar</td>\n                                <td style=\"border-collapse:collapse;border-spacing:0;font-family:Arial, sans-serif;font-size:14px;padding:10px 5px;border-style:solid;border-width:1px;overflow:hidden;word-break:normal;border-color:black;border-color:#000000;text-align:left;vertical-align:top\">Amended</td>\n                                <td style=\"border-collapse:collapse;border-spacing:0;font-family:Arial, sans-serif;font-size:14px;padding:10px 5px;border-style:solid;border-width:1px;overflow:hidden;word-break:normal;border-color:black;border-color:#000000;text-align:left;vertical-align:top\"/>\n                                <td style=\"border-collapse:collapse;border-spacing:0;font-family:Arial, sans-serif;font-size:14px;padding:10px 5px;border-style:solid;border-width:1px;overflow:hidden;word-break:normal;border-color:black;border-color:#000000;text-align:left;vertical-align:top\"/>\n                                <td style=\"border-collapse:collapse;border-spacing:0;font-family:Arial, sans-serif;font-size:14px;padding:10px 5px;border-style:solid;border-width:1px;overflow:hidden;word-break:normal;border-color:black;border-color:#000000;text-align:left;vertical-align:top\"/>\n                                <td style=\"border-collapse:collapse;border-spacing:0;font-family:Arial, sans-serif;font-size:14px;padding:10px 5px;border-style:solid;border-width:1px;overflow:hidden;word-break:normal;border-color:black;border-color:#000000;text-align:left;vertical-align:top\">White and round with 227 imprinted</td>\n                            </tr>\n                            <tr>\n                                <td style=\"border-collapse:collapse;border-spacing:0;font-family:Arial, sans-serif;font-size:14px;padding:10px 5px;border-style:solid;border-width:1px;overflow:hidden;word-break:normal;border-color:black;border-color:#000000;text-align:left;vertical-align:top\">Multi-vitamins</td>\n                                <td style=\"border-collapse:collapse;border-spacing:0;font-family:Arial, sans-serif;font-size:14px;padding:10px 5px;border-style:solid;border-width:1px;overflow:hidden;word-break:normal;border-color:black;border-color:#000000;text-align:left;vertical-align:top\"/>\n                                <td style=\"border-collapse:collapse;border-spacing:0;font-family:Arial, sans-serif;font-size:14px;padding:10px 5px;border-style:solid;border-width:1px;overflow:hidden;word-break:normal;border-color:black;border-color:#000000;text-align:left;vertical-align:top\">Take one tablet daily</td>\n                                <td style=\"border-collapse:collapse;border-spacing:0;font-family:Arial, sans-serif;font-size:14px;padding:10px 5px;border-style:solid;border-width:1px;overflow:hidden;word-break:normal;border-color:black;border-color:#000000;text-align:left;vertical-align:top\"/>\n                                <td style=\"border-collapse:collapse;border-spacing:0;font-family:Arial, sans-serif;font-size:14px;padding:10px 5px;border-style:solid;border-width:1px;overflow:hidden;word-break:normal;border-color:black;border-color:#000000;text-align:left;vertical-align:top\">Unchanged</td>\n                                <td style=\"border-collapse:collapse;border-spacing:0;font-family:Arial, sans-serif;font-size:14px;padding:10px 5px;border-style:solid;border-width:1px;overflow:hidden;word-break:normal;border-color:black;border-color:#000000;text-align:left;vertical-align:top\"/>\n                                <td style=\"border-collapse:collapse;border-spacing:0;font-family:Arial, sans-serif;font-size:14px;padding:10px 5px;border-style:solid;border-width:1px;overflow:hidden;word-break:normal;border-color:black;border-color:#000000;text-align:left;vertical-align:top\"/>\n                                <td style=\"border-collapse:collapse;border-spacing:0;font-family:Arial, sans-serif;font-size:14px;padding:10px 5px;border-style:solid;border-width:1px;overflow:hidden;word-break:normal;border-color:black;border-color:#000000;text-align:left;vertical-align:top\"/>\n                                <td style=\"border-collapse:collapse;border-spacing:0;font-family:Arial, sans-serif;font-size:14px;padding:10px 5px;border-style:solid;border-width:1px;overflow:hidden;word-break:normal;border-color:black;border-color:#000000;text-align:left;vertical-align:top\"/>\n                            </tr>\n                            <tr>\n                                <td style=\"border-collapse:collapse;border-spacing:0;font-family:Arial, sans-serif;font-size:14px;padding:10px 5px;border-style:solid;border-width:1px;overflow:hidden;word-break:normal;border-color:black;border-color:#000000;text-align:left;vertical-align:top\">Paracetamol 665mg tablet</td>\n                                <td style=\"border-collapse:collapse;border-spacing:0;font-family:Arial, sans-serif;font-size:14px;padding:10px 5px;border-style:solid;border-width:1px;overflow:hidden;word-break:normal;border-color:black;border-color:#000000;text-align:left;vertical-align:top\">Panadol Osteo</td>\n                                <td style=\"border-collapse:collapse;border-spacing:0;font-family:Arial, sans-serif;font-size:14px;padding:10px 5px;border-style:solid;border-width:1px;overflow:hidden;word-break:normal;border-color:black;border-color:#000000;text-align:left;vertical-align:top\">Take two tablets every 6 to 8 hours when required</td>\n                                <td style=\"border-collapse:collapse;border-spacing:0;font-family:Arial, sans-serif;font-size:14px;padding:10px 5px;border-style:solid;border-width:1px;overflow:hidden;word-break:normal;border-color:black;border-color:#000000;text-align:left;vertical-align:top\">Osteoarthritis, pain relief</td>\n                                <td style=\"border-collapse:collapse;border-spacing:0;font-family:Arial, sans-serif;font-size:14px;padding:10px 5px;border-style:solid;border-width:1px;overflow:hidden;word-break:normal;border-color:black;border-color:#000000;text-align:left;vertical-align:top\">Unchanged</td>\n                                <td style=\"border-collapse:collapse;border-spacing:0;font-family:Arial, sans-serif;font-size:14px;padding:10px 5px;border-style:solid;border-width:1px;overflow:hidden;word-break:normal;border-color:black;border-color:#000000;text-align:left;vertical-align:top\"/>\n                                <td style=\"border-collapse:collapse;border-spacing:0;font-family:Arial, sans-serif;font-size:14px;padding:10px 5px;border-style:solid;border-width:1px;overflow:hidden;word-break:normal;border-color:black;border-color:#000000;text-align:left;vertical-align:top\">No more than 6 tablets in 24 hours</td>\n                                <td style=\"border-collapse:collapse;border-spacing:0;font-family:Arial, sans-serif;font-size:14px;padding:10px 5px;border-style:solid;border-width:1px;overflow:hidden;word-break:normal;border-color:black;border-color:#000000;text-align:left;vertical-align:top\"/>\n                                <td style=\"border-collapse:collapse;border-spacing:0;font-family:Arial, sans-serif;font-size:14px;padding:10px 5px;border-style:solid;border-width:1px;overflow:hidden;word-break:normal;border-color:black;border-color:#000000;text-align:left;vertical-align:top\"/>\n                            </tr>\n                        </table>\n\n                        <table style=\"border-collapse:collapse;border-spacing:0;width:100%;\">\n                            <caption>Ceased medicines</caption>\n                            <tr>\n                                <th style=\"border-collapse:collapse;border-spacing:0;font-family:Arial, sans-serif;font-size:14px;font-weight:normal;padding:10px 5px;border-style:solid;border-width:1px;overflow:hidden;word-break:normal;border-color:black;font-weight:bold;background-color:#9b9b9b;border-color:#000000;text-align:left;vertical-align:top\">Medicine</th>\n                                <th style=\"border-collapse:collapse;border-spacing:0;font-family:Arial, sans-serif;font-size:14px;font-weight:normal;padding:10px 5px;border-style:solid;border-width:1px;overflow:hidden;word-break:normal;border-color:black;font-weight:bold;background-color:#9b9b9b;border-color:#000000;text-align:left;vertical-align:top\">Reason for ceasing medicine</th>\n                                <th style=\"border-collapse:collapse;border-spacing:0;font-family:Arial, sans-serif;font-size:14px;font-weight:normal;padding:10px 5px;border-style:solid;border-width:1px;overflow:hidden;word-break:normal;border-color:black;font-weight:bold;background-color:#9b9b9b;border-color:#000000;text-align:left;vertical-align:top\">Ceased date</th>\n                            </tr>\n                            <tr>\n                                <td style=\"border-collapse:collapse;border-spacing:0;font-family:Arial, sans-serif;font-size:14px;padding:10px 5px;border-style:solid;border-width:1px;overflow:hidden;word-break:normal;border-color:black;border-color:#000000;text-align:left;vertical-align:top\">Paracetamol 500 mg tablet</td>\n                                <td style=\"border-collapse:collapse;border-spacing:0;font-family:Arial, sans-serif;font-size:14px;padding:10px 5px;border-style:solid;border-width:1px;overflow:hidden;word-break:normal;border-color:black;border-color:#000000;text-align:left;vertical-align:top\">Stopped; duplicated medicine</td>\n                                <td style=\"border-collapse:collapse;border-spacing:0;font-family:Arial, sans-serif;font-size:14px;padding:10px 5px;border-style:solid;border-width:1px;overflow:hidden;word-break:normal;border-color:black;border-color:#000000;text-align:left;vertical-align:top\">Dec 2018</td>\n                            </tr>\n                            <tr>\n                                <td style=\"border-collapse:collapse;border-spacing:0;font-family:Arial, sans-serif;font-size:14px;padding:10px 5px;border-style:solid;border-width:1px;overflow:hidden;word-break:normal;border-color:black;border-color:#000000;text-align:left;vertical-align:top\">ibuprofen</td>\n                                <td style=\"border-collapse:collapse;border-spacing:0;font-family:Arial, sans-serif;font-size:14px;padding:10px 5px;border-style:solid;border-width:1px;overflow:hidden;word-break:normal;border-color:black;border-color:#000000;text-align:left;vertical-align:top\">Allergic Reaction</td>\n                                <td style=\"border-collapse:collapse;border-spacing:0;font-family:Arial, sans-serif;font-size:14px;padding:10px 5px;border-style:solid;border-width:1px;overflow:hidden;word-break:normal;border-color:black;border-color:#000000;text-align:left;vertical-align:top\"/>\n                            </tr>\n                        </table>\n\n                        <p>Packed medicines: No</p>\n                        <p>Please review this list with your pharmacist on or soon after 02/Apr/2019. Community pharmacy medicine review</p>\n                    </div>"
        },
        "extension": [
          {
            "url": "http://hl7.org.au/fhir/StructureDefinition/composition-author-role",
            "valueReference": {
              "reference": "urn:uuid:eebd7c94-e124-4c2b-95dc-a6aebbe7bb4d"
            }
          }
        ],
        "status": "final",
        "type": {
          "coding": [
            {
              "system": "http://loinc.org",
              "code": "56445-0",
              "display": "Medication summary"
            }
          ]
        },
        "subject": {
          "reference": "urn:uuid:43acc1fd-9f9d-4f2f-8649-c290ac7ff847"
        },
        "encounter": {
          "reference": "urn:uuid:038f9aaa-6c3d-4681-b9de-455de06a86d3"
        },
        "date": "2018-12-11T13:30:00+10:00",
        "author": [
          {
            "reference": "urn:uuid:6312677b-2e4a-4841-a986-915905e01931"
          }
        ],
        "title": "Pharmacist Shared Medicines List",
        "attester": [
          {
            "mode": [
              "legal"
            ],
            "time": "2018-12-11T13:30:00+10:00",
            "party": {
              "reference": "urn:uuid:6312677b-2e4a-4841-a986-915905e01931"
            }
          }
        ],
        "custodian": {
          "reference": "urn:uuid:24391534-dbe5-44f0-af74-07ca016e7446"
        },
        "section": [
          {
            "title": "Medicines List",
            "code": {
              "coding": [
                {
                  "system": "http://loinc.org",
                  "code": "10160-0",
                  "display": "History of Medication use Narrative"
                }
              ]
            },
            "text": {
              "status": "additional",
              "div": "<div xmlns=\"http://www.w3.org/1999/xhtml\">\n                            <table>\n                                <caption>Current medicines</caption>\n                                <thead>\n                                    <tr>\n                                        <th>Medicine</th>\n                                        <th>Brand name</th>\n                                        <th>Direction</th>\n                                        <th>Medicine purpose</th>\n                                        <th>Medicine status</th>\n                                        <th>Expected end date</th>\n                                        <th>Special instructions</th>\n                                        <th>Medicine Image</th>\n                                        <th>Physical Description</th>\n                                    </tr>\n                                </thead>\n                                <tbody>\n                                    <tr>\n                                        <td/>\n                                        <td>Ferro-Grad C</td>\n                                        <td>Take one tablet daily</td>\n                                        <td>Iron supplement</td>\n                                        <td>Unchanged</td>\n                                        <td/>\n                                        <td/>\n                                        <td/>\n                                        <td/>\n                                    </tr>\n                                    <tr>\n                                        <td>Amoxicillin 875 mg + clavulanic acid 125 mg tablet</td>\n                                        <td>Augmentin Duo Forte</td>\n                                        <td>Take one tablet twice a day</td>\n                                        <td>Chest infection</td>\n                                        <td>New</td>\n                                        <td>20/01/2019</td>\n                                        <td/>\n                                        <td/>\n                                        <td/>\n                                    </tr>\n                                    <tr>\n                                        <td>Metformin 500mg tablet</td>\n                                        <td>Sandoz</td>\n                                        <td>Take one tablet twice a day</td>\n                                        <td>Reduce blood sugar</td>\n                                        <td>Amended</td>\n                                        <td/>\n                                        <td/>\n                                        <td/>\n                                        <td>White and round with 227 imprinted</td>\n                                    </tr>\n                                    <tr>\n                                        <td>Multi-vitamins</td>\n                                        <td/>\n                                        <td>Take one tablet daily</td>\n                                        <td/>\n                                        <td>Unchanged</td>\n                                        <td/>\n                                        <td/>\n                                        <td/>\n                                        <td/>\n                                    </tr>\n                                    <tr>\n                                        <td>Paracetamol 665 mg tablet</td>\n                                        <td>Panadol Osteo</td>\n                                        <td>Take two tablets every 6 to 8 hours when required</td>\n                                        <td>Osteoarthritis, pain relief</td>\n                                        <td>Unchanged</td>\n                                        <td/>\n                                        <td>No more than 6 tablets in 24 hours</td>\n                                        <td/>\n                                        <td/>\n                                    </tr>\n                                </tbody>\n                            </table>\n                            <table>\n                                <caption>Ceased medicines</caption>\n                                <thead>\n                                    <tr>\n                                        <th>Medicine</th>\n                                        <th>Reason for ceasing medicine</th>\n                                        <th>Ceased date</th>\n                                    </tr>\n                                </thead>\n                                <tbody>\n                                    <tr>\n                                        <td/>\n                                        <td>Paracetamol 500mg tablet</td>\n                                        <td>Stopped; duplicated medicine</td>\n                                        <td>Dec 2018</td>\n                                    </tr>\n                                    <tr>\n                                        <td>Ibuprofen</td>\n                                        <td>Allergic Reaction</td>\n                                        <td/>\n                                    </tr>\n                                </tbody>\n                            </table>\n                            <p>Packed medicines: No</p>\n                            <p>Please review this list with your pharmacist on or soon after 02/Apr/2019. Community pharmacy medicine review</p>\n                        </div>"
            },
            "entry": [
              {
                "reference": "urn:uuid:e3677c50-8940-4793-bc43-72a33e5b6460"
              }
            ]
          },
          {
            "title": "Allergies",
            "code": {
              "coding": [
                {
                  "system": "http://loinc.org",
                  "code": "48765-2",
                  "display": "Allergies &or adverse reactions"
                }
              ]
            },
            "text": {
              "status": "additional",
              "div": "<div xmlns=\"http://www.w3.org/1999/xhtml\">\n                            <table>\n                                <caption>Allergies</caption>\n                                <thead>\n                                    <tr>\n                                        <th>Substance/Agent</th>\n                                        <th>Reaction Type</th>\n                                        <th>Reaction</th>\n                                        <th>Reaction Onset Date</th>\n                                    </tr>\n                                </thead>\n                                <tbody>\n                                    <tr>\n                                        <td>Ibuprofen</td>\n                                        <td>Allergic reaction</td>\n                                        <td>Anaphylaxis</td>\n                                        <td>October 2016</td>\n                                    </tr>\n                                </tbody>\n                            </table>\n                        </div>"
            },
            "entry": [
              {
                "reference": "urn:uuid:7f834da9-63f5-4a66-a847-a32c366701ff"
              }
            ]
          }
        ]
      }
    },
    {
      "fullUrl": "urn:uuid:43acc1fd-9f9d-4f2f-8649-c290ac7ff847",
      "resource": {
        "resourceType": "Patient",
        "id": "43acc1fd-9f9d-4f2f-8649-c290ac7ff847",
        "text": {
          "status": "generated",
          "div": "<div xmlns=\"http://www.w3.org/1999/xhtml\"><p><b>Generated Narrative with Details</b></p><p><b>id</b>: 43acc1fd-9f9d-4f2f-8649-c290ac7ff847</p><p><b>identifier</b>: National unique individual identifier = 8003608333563104</p><p><b>name</b>: Mac PRIEST </p><p><b>gender</b>: male</p><p><b>birthDate</b>: 1989-03-09</p><p><b>generalPractitioner</b>: <a href=\"urn:uuid:b738af06-18f5-48b8-a0d6-96d0e97c0634\">urn:uuid:b738af06-18f5-48b8-a0d6-96d0e97c0634</a></p></div>"
        },
        "extension": [
          {
            "url": "http://hl7.org.au/fhir/StructureDefinition/indigenous-status",
            "valueCoding": {
              "system": "https://healthterminologies.gov.au/fhir/CodeSystem/australian-indigenous-status-1",
              "code": "4",
              "display": "Neither Aboriginal nor Torres Strait Islander origin"
            }
          }
        ],
        "identifier": [
          {
            "type": {
              "coding": [
                {
                  "system": "http://hl7.org/fhir/v2/0203",
                  "code": "NI",
                  "display": "National unique individual identifier"
                }
              ]
            },
            "system": "http://ns.electronichealth.net.au/id/hi/ihi/1.0",
            "value": "8003608333563104"
          }
        ],
        "name": [
          {
            "family": "PRIEST",
            "given": [
              "Mac"
            ]
          }
        ],
        "gender": "male",
        "birthDate": "1989-03-09",
        "generalPractitioner": [
          {
            "reference": "urn:uuid:b738af06-18f5-48b8-a0d6-96d0e97c0634"
          }
        ]
      }
    },
    {
      "fullUrl": "urn:uuid:6312677b-2e4a-4841-a986-915905e01931",
      "resource": {
        "resourceType": "Practitioner",
        "id": "6312677b-2e4a-4841-a986-915905e01931",
        "text": {
          "status": "generated",
          "div": "<div xmlns=\"http://www.w3.org/1999/xhtml\"><p><b>Generated Narrative with Details</b></p><p><b>id</b>: 6312677b-2e4a-4841-a986-915905e01931</p><p><b>identifier</b>: HPI-I = 8003611566708354</p><p><b>name</b>: Zane Sinclair </p><h3>Qualifications</h3><table class=\"grid\"><tr><td>-</td><td><b>Code</b></td></tr><tr><td>*</td><td>Bachelor of Pharmacy <span style=\"background: LightGoldenRodYellow\">(Details )</span></td></tr></table></div>"
        },
        "identifier": [
          {
            "type": {
              "coding": [
                {
                  "system": "http://hl7.org/fhir/v2/0203",
                  "code": "NPI",
                  "display": "National provider identifier"
                }
              ],
              "text": "HPI-I"
            },
            "system": "http://ns.electronichealth.net.au/id/hi/hpii/1.0",
            "value": "8003611566708354"
          }
        ],
        "name": [
          {
            "family": "Sinclair",
            "given": [
              "Zane"
            ],
            "prefix": [
              "Mr."
            ]
          }
        ],
        "qualification": [
          {
            "code": {
              "text": "Bachelor of Pharmacy"
            }
          }
        ]
      }
    },
    {
      "fullUrl": "urn:uuid:eebd7c94-e124-4c2b-95dc-a6aebbe7bb4d",
      "resource": {
        "resourceType": "PractitionerRole",
        "id": "eebd7c94-e124-4c2b-95dc-a6aebbe7bb4d",
        "text": {
          "status": "generated",
          "div": "<div xmlns=\"http://www.w3.org/1999/xhtml\"><p><b>Generated Narrative with Details</b></p><p><b>id</b>: eebd7c94-e124-4c2b-95dc-a6aebbe7bb4d</p><p><b>identifier</b>: HPI-I = 8003611566708354</p><p><b>practitioner</b>: <a href=\"urn:uuid:6312677b-2e4a-4841-a986-915905e01931\">urn:uuid:6312677b-2e4a-4841-a986-915905e01931</a></p><p><b>organization</b>: <a href=\"urn:uuid:24391534-dbe5-44f0-af74-07ca016e7446\">urn:uuid:24391534-dbe5-44f0-af74-07ca016e7446</a></p><p><b>code</b>: Pharmacist <span style=\"background: LightGoldenRodYellow\">(Details : {http://www.abs.gov.au/ausstats/abs@.nsf/mf/1220.0 code '251513' = '251513', given as 'Retail Pharmacist'})</span></p><p><b>telecom</b>: zsin@gmail.com(WORK)</p></div>"
        },
        "identifier": [
          {
            "type": {
              "coding": [
                {
                  "system": "http://hl7.org/fhir/v2/0203",
                  "code": "NPI",
                  "display": "National provider identifier"
                }
              ],
              "text": "HPI-I"
            },
            "system": "http://ns.electronichealth.net.au/id/hi/hpii/1.0",
            "value": "8003611566708354"
          }
        ],
        "practitioner": {
          "reference": "urn:uuid:6312677b-2e4a-4841-a986-915905e01931"
        },
        "organization": {
          "reference": "urn:uuid:24391534-dbe5-44f0-af74-07ca016e7446"
        },
        "code": [
          {
            "coding": [
              {
                "system": "http://www.abs.gov.au/ausstats/abs@.nsf/mf/1220.0",
                "code": "251513",
                "display": "Retail Pharmacist"
              }
            ],
            "text": "Pharmacist"
          }
        ],
        "telecom": [
          {
            "system": "email",
            "value": "zsin@gmail.com",
            "use": "work"
          }
        ]
      }
    },
    {
      "fullUrl": "urn:uuid:24391534-dbe5-44f0-af74-07ca016e7446",
      "resource": {
        "resourceType": "Organization",
        "id": "24391534-dbe5-44f0-af74-07ca016e7446",
        "text": {
          "status": "generated",
          "div": "<div xmlns=\"http://www.w3.org/1999/xhtml\"><p><b>Generated Narrative with Details</b></p><p><b>id</b>: 24391534-dbe5-44f0-af74-07ca016e7446</p><p><b>identifier</b>: HPI-O = 8003629900033370</p><p><b>type</b>: Retail Pharmacy <span style=\"background: LightGoldenRodYellow\">(Details : {http://www.abs.gov.au/ausstats/abs@.nsf/mf/1292.0 code '4271' = '4271', given as 'Retail Pharmacy'})</span></p><p><b>name</b>: Test Org - Retail Pharmacy</p><p><b>address</b>: 570 Whatcha St GLEBE NSW 2037 AU (WORK)</p></div>"
        },
        "identifier": [
          {
            "type": {
              "coding": [
                {
                  "system": "http://hl7.org.au/fhir/v2/0203",
                  "code": "NOI"
                }
              ],
              "text": "HPI-O"
            },
            "system": "http://ns.electronichealth.net.au/id/hi/hpio/1.0",
            "value": "8003629900033370"
          }
        ],
        "type": [
          {
            "coding": [
              {
                "system": "http://www.abs.gov.au/ausstats/abs@.nsf/mf/1292.0",
                "code": "4271",
                "display": "Retail Pharmacy"
              }
            ]
          }
        ],
        "name": "Test Org - Retail Pharmacy",
        "address": [
          {
            "use": "work",
            "line": [
              "570 Whatcha St"
            ],
            "city": "GLEBE",
            "state": "NSW",
            "postalCode": "2037",
            "country": "AU"
          }
        ]
      }
    },
    {
      "fullUrl": "urn:uuid:b738af06-18f5-48b8-a0d6-96d0e97c0634",
      "resource": {
        "resourceType": "Organization",
        "id": "b738af06-18f5-48b8-a0d6-96d0e97c0634",
        "text": {
          "status": "generated",
          "div": "<div xmlns=\"http://www.w3.org/1999/xhtml\"><p><b>Generated Narrative with Details</b></p><p><b>id</b>: b738af06-18f5-48b8-a0d6-96d0e97c0634</p><p><b>type</b>: Medical centre <span style=\"background: LightGoldenRodYellow\">(Details : {SNOMED CT code '288565001' = 'Medical center', given as 'Medical centre'})</span></p><p><b>name</b>: Test Medical Centre</p></div>"
        },
        "type": [
          {
            "coding": [
              {
                "system": "http://snomed.info/sct",
                "code": "288565001",
                "display": "Medical centre"
              }
            ]
          }
        ],
        "name": "Test Medical Centre"
      }
    },
    {
      "fullUrl": "urn:uuid:038f9aaa-6c3d-4681-b9de-455de06a86d3",
      "resource": {
        "resourceType": "Encounter",
        "id": "038f9aaa-6c3d-4681-b9de-455de06a86d3",
        "text": {
          "status": "generated",
          "div": "<div xmlns=\"http://www.w3.org/1999/xhtml\"><p><b>Generated Narrative with Details</b></p><p><b>id</b>: 038f9aaa-6c3d-4681-b9de-455de06a86d3</p><p><b>status</b>: finished</p><p><b>type</b>: Community pharmacy medicine review <span style=\"background: LightGoldenRodYellow\">(Details : {SNOMED CT code '1348961000168104' = '1348961000168104', given as 'Community pharmacy medicines review'})</span></p><p><b>subject</b>: <a href=\"urn:uuid:43acc1fd-9f9d-4f2f-8649-c290ac7ff847\">urn:uuid:43acc1fd-9f9d-4f2f-8649-c290ac7ff847</a></p><p><b>period</b>: 11/12/2018 10:00:00 AM --&gt; 11/12/2018 1:30:00 PM</p></div>"
        },
        "status": "finished",
        "type": [
          {
            "coding": [
              {
                "system": "http://snomed.info/sct",
                "code": "1348961000168104",
                "display": "Community pharmacy medicines review"
              }
            ],
            "text": "Community pharmacy medicine review"
          }
        ],
        "subject": {
          "reference": "urn:uuid:43acc1fd-9f9d-4f2f-8649-c290ac7ff847"
        },
        "period": {
          "start": "2018-12-11T10:00:00+10:00",
          "end": "2018-12-11T13:30:00+10:00"
        }
      }
    },
    {
      "fullUrl": "urn:uuid:e3677c50-8940-4793-bc43-72a33e5b6460",
      "resource": {
        "resourceType": "List",
        "id": "e3677c50-8940-4793-bc43-72a33e5b6460",
        "meta": {
          "profile": [
            "http://ns.electronichealth.net.au/ci/fhir/3.0/StructureDefinition/list-sml-pracchanges-1"
          ]
        },
        "language": "en-AU",
        "text": {
          "status": "additional",
          "div": "<div xmlns=\"http://www.w3.org/1999/xhtml\">\n                        <table>\n                            <caption>Current medicines</caption>\n                            <thead>\n                                <tr>\n                                    <th>Medicine</th>\n                                    <th>Brand name</th>\n                                    <th>Direction</th>\n                                    <th>Medicine purpose</th>\n                                    <th>Medicine status</th>\n                                    <th>Expected end date</th>\n                                    <th>Special instructions</th>\n                                    <th>Medicine Image</th>\n                                    <th>Physical Description</th>\n                                </tr>\n                            </thead>\n                            <tbody>\n                                <tr>\n                                    <td/>\n                                    <td>Ferro-Grad C</td>\n                                    <td>Take one tablet daily</td>\n                                    <td>Iron supplement</td>\n                                    <td>Unchanged</td>\n                                    <td/>\n                                    <td/>\n                                    <td/>\n                                    <td/>\n                                </tr>\n                                <tr>\n                                    <td>Amoxicillin 875 mg + clavulanic acid 125 mg tablet</td>\n                                    <td>Augmentin Duo Forte</td>\n                                    <td>Take one tablet twice a day</td>\n                                    <td>Chest infection</td>\n                                    <td>New</td>\n                                    <td>20/01/2019</td>\n                                    <td/>\n                                    <td/>\n                                    <td/>\n                                </tr>\n                                <tr>\n                                    <td>Metformin 500mg tablet</td>\n                                    <td>Sandoz</td>\n                                    <td>Take one tablet twice a day</td>\n                                    <td>Reduce blood sugar</td>\n                                    <td>Amended</td>\n                                    <td/>\n                                    <td/>\n                                    <td/>\n                                    <td>White and round with 227 imprinted</td>\n                                </tr>\n                                <tr>\n                                    <td>Multi-vitamins</td>\n                                    <td/>\n                                    <td>Take one tablet daily</td>\n                                    <td/>\n                                    <td>Unchanged</td>\n                                    <td/>\n                                    <td/>\n                                    <td/>\n                                    <td/>\n                                </tr>\n                                <tr>\n                                    <td>Paracetamol 665 mg tablet</td>\n                                    <td>Panadol Osteo</td>\n                                    <td>Take two tablets every 6 to 8 hours when required</td>\n                                    <td>Osteoarthritis, pain relief</td>\n                                    <td>Unchanged</td>\n                                    <td/>\n                                    <td>No more than 6 tablets in 24 hours</td>\n                                    <td/>\n                                    <td/>\n                                </tr>\n                            </tbody>\n                        </table>\n                        <table>\n                            <caption>Ceased medicines</caption>\n                            <thead>\n                                <tr>\n                                    <th>Medicine</th>\n                                    <th>Reason for ceasing medicine</th>\n                                    <th>Ceased date</th>\n                                </tr>\n                            </thead>\n                            <tbody>\n                                <tr>\n                                    <td/>\n                                    <td>Paracetamol 500mg tablet</td>\n                                    <td>Stopped; duplicated medicine</td>\n                                    <td>Dec 2018</td>\n                                </tr>\n                                <tr>\n                                    <td>Ibuprofen</td>\n                                    <td>Allergic Reaction</td>\n                                    <td/>\n                                </tr>\n                            </tbody>\n                        </table>\n                        <p>Packed medicines: No</p>\n                        <p>Please review this list with your pharmacist on or soon after 02/Apr/2019. Community pharmacy medicine review</p>\n                    </div>"
        },
        "extension": [
          {
            "url": "http://hl7.org.au/fhir/StructureDefinition/author-role",
            "valueReference": {
              "reference": "urn:uuid:eebd7c94-e124-4c2b-95dc-a6aebbe7bb4d"
            }
          }
        ],
        "status": "current",
        "mode": "snapshot",
        "code": {
          "coding": [
            {
              "system": "http://loinc.org",
              "code": "10160-0",
              "display": "History of Medication use Narrative"
            }
          ]
        },
        "subject": {
          "reference": "urn:uuid:43acc1fd-9f9d-4f2f-8649-c290ac7ff847"
        },
        "encounter": {
          "reference": "urn:uuid:038f9aaa-6c3d-4681-b9de-455de06a86d3"
        },
        "date": "2018-12-11T13:30:00+10:00",
        "source": {
          "reference": "urn:uuid:6312677b-2e4a-4841-a986-915905e01931"
        },
        "note": [
          {
            "text": "Packed medicines: No; Please review this list with your pharmacist on or soon                         after 02/Apr/2019."
          }
        ],
        "entry": [
          {
            "flag": {
              "coding": [
                {
                  "system": "http://hl7.org.au/fhir/CodeSystem/medicine-item-change",
                  "code": "nochange",
                  "display": "Unchanged"
                }
              ]
            },
            "item": {
              "reference": "urn:uuid:32def593-e104-4cee-b8f5-d1f923efd94b"
            }
          },
          {
            "extension": [
              {
                "url": "http://hl7.org.au/fhir/StructureDefinition/change-description",
                "valueString": "Chest infection"
              }
            ],
            "flag": {
              "coding": [
                {
                  "system": "http://hl7.org.au/fhir/CodeSystem/medicine-item-change",
                  "code": "new",
                  "display": "New"
                }
              ]
            },
            "item": {
              "reference": "urn:uuid:f02c54ad-3562-4f7b-8956-de16769a2a88"
            }
          },
          {
            "extension": [
              {
                "url": "http://hl7.org.au/fhir/StructureDefinition/change-description",
                "valueString": "Dose increased from 250mg to 500mg"
              }
            ],
            "flag": {
              "coding": [
                {
                  "system": "http://hl7.org.au/fhir/CodeSystem/medicine-item-change",
                  "code": "amended",
                  "display": "Amended"
                }
              ]
            },
            "item": {
              "reference": "urn:uuid:f27faa7d-0433-484a-94ab-5a3f966bd7b1"
            }
          },
          {
            "flag": {
              "coding": [
                {
                  "system": "http://hl7.org.au/fhir/CodeSystem/medicine-item-change",
                  "code": "nochange",
                  "display": "Unchanged"
                }
              ]
            },
            "item": {
              "reference": "urn:uuid:006679bd-44a9-49df-82ba-a41db0cd6298"
            }
          },
          {
            "flag": {
              "coding": [
                {
                  "system": "http://hl7.org.au/fhir/CodeSystem/medicine-item-change",
                  "code": "nochange",
                  "display": "Unchanged"
                }
              ]
            },
            "item": {
              "reference": "urn:uuid:d14a5c15-87c9-4cf8-9047-657189898273"
            }
          },
          {
            "extension": [
              {
                "url": "http://hl7.org.au/fhir/StructureDefinition/change-description",
                "valueString": "Duplicated medicine"
              }
            ],
            "flag": {
              "coding": [
                {
                  "system": "http://hl7.org.au/fhir/CodeSystem/medicine-item-change",
                  "code": "ceased",
                  "display": "Ceased"
                }
              ]
            },
            "item": {
              "reference": "urn:uuid:17affe2a-6496-437d-8d1a-22baae41a5ae"
            }
          },
          {
            "extension": [
              {
                "url": "http://hl7.org.au/fhir/StructureDefinition/change-description",
                "valueString": "Allergic reaction"
              }
            ],
            "flag": {
              "coding": [
                {
                  "system": "http://hl7.org.au/fhir/CodeSystem/medicine-item-change",
                  "code": "ceased"
                }
              ]
            },
            "item": {
              "reference": "urn:uuid:3f99bc18-7edf-4e2a-9eae-86629b56d06e"
            }
          }
        ]
      }
    },
    {
      "fullUrl": "urn:uuid:32def593-e104-4cee-b8f5-d1f923efd94b",
      "resource": {
        "resourceType": "MedicationStatement",
        "id": "32def593-e104-4cee-b8f5-d1f923efd94b",
        "text": {
          "status": "generated",
          "div": "<div xmlns=\"http://www.w3.org/1999/xhtml\"><p><b>Generated Narrative with Details</b></p><p><b>id</b>: 32def593-e104-4cee-b8f5-d1f923efd94b</p><p><b>status</b>: active</p><p><b>medication</b>: <a href=\"urn:uuid:27046ef9-d808-46d4-a028-0ef182b7a8b2\">urn:uuid:27046ef9-d808-46d4-a028-0ef182b7a8b2</a></p><p><b>subject</b>: <a href=\"urn:uuid:43acc1fd-9f9d-4f2f-8649-c290ac7ff847\">urn:uuid:43acc1fd-9f9d-4f2f-8649-c290ac7ff847</a></p><p><b>taken</b>: y</p><p><b>reasonCode</b>: Iron supplement <span style=\"background: LightGoldenRodYellow\">(Details )</span></p><p><b>dosage</b>: </p></div>"
        },
        "status": "active",
        "medicationReference": {
          "reference": "urn:uuid:27046ef9-d808-46d4-a028-0ef182b7a8b2"
        },
        "subject": {
          "reference": "urn:uuid:43acc1fd-9f9d-4f2f-8649-c290ac7ff847"
        },
        "taken": "y",
        "reasonCode": [
          {
            "text": "Iron supplement"
          }
        ],
        "dosage": [
          {
            "text": "Take one tablet daily",
            "timing": {
              "repeat": {
                "frequency": 1,
                "period": 1,
                "periodUnit": "d"
              }
            },
            "doseQuantity": {
              "value": 1,
              "unit": "tablet",
              "system": "http://snomed.info/sct",
              "code": "154011000036109"
            }
          }
        ]
      }
    },
    {
      "fullUrl": "urn:uuid:27046ef9-d808-46d4-a028-0ef182b7a8b2",
      "resource": {
        "resourceType": "Medication",
        "id": "27046ef9-d808-46d4-a028-0ef182b7a8b2",
        "text": {
          "status": "generated",
          "div": "<div xmlns=\"http://www.w3.org/1999/xhtml\"><p><b>Generated Narrative with Details</b></p><p><b>id</b>: 27046ef9-d808-46d4-a028-0ef182b7a8b2</p><p><b>code</b>: Ferro-Grad C <span style=\"background: LightGoldenRodYellow\">(Details : {SNOMED CT code '53373011000036103' = '53373011000036103', given as 'Ferro-Grad C'})</span></p><p><b>form</b>: tablet <span style=\"background: LightGoldenRodYellow\">(Details : {SNOMED CT code '154011000036109' = '154011000036109', given as 'tablet'})</span></p></div>"
        },
        "code": {
          "coding": [
            {
              "system": "http://snomed.info/sct",
              "code": "53373011000036103",
              "display": "Ferro-Grad C"
            }
          ],
          "text": "Ferro-Grad C"
        },
        "form": {
          "coding": [
            {
              "system": "http://snomed.info/sct",
              "code": "154011000036109",
              "display": "tablet"
            }
          ]
        }
      }
    },
    {
      "fullUrl": "urn:uuid:f02c54ad-3562-4f7b-8956-de16769a2a88",
      "resource": {
        "resourceType": "MedicationStatement",
        "id": "f02c54ad-3562-4f7b-8956-de16769a2a88",
        "text": {
          "status": "generated",
          "div": "<div xmlns=\"http://www.w3.org/1999/xhtml\"><p><b>Generated Narrative with Details</b></p><p><b>id</b>: f02c54ad-3562-4f7b-8956-de16769a2a88</p><p><b>status</b>: active</p><p><b>medication</b>: <a href=\"urn:uuid:c09df0db-3050-4b62-bb27-7c9b743d59bd\">urn:uuid:c09df0db-3050-4b62-bb27-7c9b743d59bd</a></p><p><b>effective</b>: ?? --&gt; 20/01/2019 12:00:00 AM</p><p><b>subject</b>: <a href=\"urn:uuid:43acc1fd-9f9d-4f2f-8649-c290ac7ff847\">urn:uuid:43acc1fd-9f9d-4f2f-8649-c290ac7ff847</a></p><p><b>taken</b>: y</p><p><b>reasonCode</b>: Chest infection <span style=\"background: LightGoldenRodYellow\">(Details )</span></p><p><b>dosage</b>: </p></div>"
        },
        "status": "active",
        "medicationReference": {
          "reference": "urn:uuid:c09df0db-3050-4b62-bb27-7c9b743d59bd"
        },
        "effectivePeriod": {
          "end": "2019-01-20"
        },
        "subject": {
          "reference": "urn:uuid:43acc1fd-9f9d-4f2f-8649-c290ac7ff847"
        },
        "taken": "y",
        "reasonCode": [
          {
            "text": "Chest infection"
          }
        ],
        "dosage": [
          {
            "text": "Take one tablet twice a day",
            "timing": {
              "repeat": {
                "frequency": 2,
                "period": 1,
                "periodUnit": "d"
              }
            },
            "doseQuantity": {
              "value": 1,
              "unit": "tablet",
              "system": "http://snomed.info/sct",
              "code": "154011000036109"
            }
          }
        ]
      }
    },
    {
      "fullUrl": "urn:uuid:c09df0db-3050-4b62-bb27-7c9b743d59bd",
      "resource": {
        "resourceType": "Medication",
        "id": "c09df0db-3050-4b62-bb27-7c9b743d59bd",
        "text": {
          "status": "generated",
          "div": "<div xmlns=\"http://www.w3.org/1999/xhtml\"><p><b>Generated Narrative with Details</b></p><p><b>id</b>: c09df0db-3050-4b62-bb27-7c9b743d59bd</p><p><b>code</b>: Amoxicillin 875 mg + clavulanic acid 125 mg tablet, Augmentin Duo Forte <span style=\"background: LightGoldenRodYellow\">(Details : {SNOMED CT code '28152011000036108' = '28152011000036108', given as 'amoxicillin 875 mg + clavulanic acid 125 mg tablet, 10'}; {http://pbs.gov.au/code/item code '5006L' = '5006L', given as 'amoxicillin 875 mg + clavulanic acid 125 mg tablet, 10'})</span></p></div>"
        },
        "extension": [
          {
            "url": "http://hl7.org.au/fhir/StructureDefinition/medication-brand-name",
            "valueString": "Augmentin Duo Forte"
          }
        ],
        "code": {
          "coding": [
            {
              "system": "http://snomed.info/sct",
              "code": "28152011000036108",
              "display": "amoxicillin 875 mg + clavulanic acid 125 mg tablet, 10"
            },
            {
              "system": "http://pbs.gov.au/code/item",
              "code": "5006L",
              "display": "amoxicillin 875 mg + clavulanic acid 125 mg tablet, 10"
            }
          ],
          "text": "Amoxicillin 875 mg + clavulanic acid 125 mg tablet, Augmentin Duo Forte"
        }
      }
    },
    {
      "fullUrl": "urn:uuid:f27faa7d-0433-484a-94ab-5a3f966bd7b1",
      "resource": {
        "resourceType": "MedicationStatement",
        "id": "f27faa7d-0433-484a-94ab-5a3f966bd7b1",
        "text": {
          "status": "generated",
          "div": "<div xmlns=\"http://www.w3.org/1999/xhtml\"><p><b>Generated Narrative with Details</b></p><p><b>id</b>: f27faa7d-0433-484a-94ab-5a3f966bd7b1</p><p><b>status</b>: active</p><p><b>medication</b>: <a href=\"urn:uuid:d45954e8-80ae-4610-b235-239e9d352799\">urn:uuid:d45954e8-80ae-4610-b235-239e9d352799</a></p><p><b>subject</b>: <a href=\"urn:uuid:43acc1fd-9f9d-4f2f-8649-c290ac7ff847\">urn:uuid:43acc1fd-9f9d-4f2f-8649-c290ac7ff847</a></p><p><b>taken</b>: y</p><p><b>reasonCode</b>: Reduce blood sugar <span style=\"background: LightGoldenRodYellow\">(Details )</span></p><p><b>dosage</b>: </p></div>"
        },
        "status": "active",
        "medicationReference": {
          "reference": "urn:uuid:d45954e8-80ae-4610-b235-239e9d352799"
        },
        "subject": {
          "reference": "urn:uuid:43acc1fd-9f9d-4f2f-8649-c290ac7ff847"
        },
        "taken": "y",
        "reasonCode": [
          {
            "text": "Reduce blood sugar"
          }
        ],
        "dosage": [
          {
            "text": "Take one tablet twice a day",
            "timing": {
              "repeat": {
                "frequency": 2,
                "period": 1,
                "periodUnit": "d"
              }
            },
            "doseQuantity": {
              "value": 1,
              "unit": "tablet",
              "system": "http://snomed.info/sct",
              "code": "154011000036109"
            }
          }
        ]
      }
    },
    {
      "fullUrl": "urn:uuid:d45954e8-80ae-4610-b235-239e9d352799",
      "resource": {
        "resourceType": "Medication",
        "id": "d45954e8-80ae-4610-b235-239e9d352799",
        "text": {
          "status": "generated",
          "div": "<div xmlns=\"http://www.w3.org/1999/xhtml\"><p><b>Generated Narrative with Details</b></p><p><b>id</b>: d45954e8-80ae-4610-b235-239e9d352799</p><p><b>code</b>: Metformin 500mg tablet, Sandoz <span style=\"background: LightGoldenRodYellow\">(Details : {SNOMED CT code '23358011000036102' = '23358011000036102', given as 'metformin hydrochloride 500 mg tablet'}; {http://pbs.gov.au/code/item code '2430X' = '2430X', given as 'metformin hydrochloride 500 mg tablet, 100'})</span></p></div>"
        },
        "extension": [
          {
            "url": "http://hl7.org.au/fhir/StructureDefinition/medication-brand-name",
            "valueString": "Sandoz"
          }
        ],
        "code": {
          "coding": [
            {
              "system": "http://snomed.info/sct",
              "code": "23358011000036102",
              "display": "metformin hydrochloride 500 mg tablet"
            },
            {
              "system": "http://pbs.gov.au/code/item",
              "code": "2430X",
              "display": "metformin hydrochloride 500 mg tablet, 100"
            }
          ],
          "text": "Metformin 500mg tablet, Sandoz"
        }
      }
    },
    {
      "fullUrl": "urn:uuid:006679bd-44a9-49df-82ba-a41db0cd6298",
      "resource": {
        "resourceType": "MedicationStatement",
        "id": "006679bd-44a9-49df-82ba-a41db0cd6298",
        "text": {
          "status": "generated",
          "div": "<div xmlns=\"http://www.w3.org/1999/xhtml\"><p><b>Generated Narrative with Details</b></p><p><b>id</b>: 006679bd-44a9-49df-82ba-a41db0cd6298</p><p><b>status</b>: active</p><p><b>medication</b>: <a href=\"urn:uuid:4418bed2-2ae9-4d0a-9acd-d70ab8284c50\">urn:uuid:4418bed2-2ae9-4d0a-9acd-d70ab8284c50</a></p><p><b>subject</b>: <a href=\"urn:uuid:43acc1fd-9f9d-4f2f-8649-c290ac7ff847\">urn:uuid:43acc1fd-9f9d-4f2f-8649-c290ac7ff847</a></p><p><b>taken</b>: y</p><p><b>dosage</b>: </p></div>"
        },
        "status": "active",
        "medicationReference": {
          "reference": "urn:uuid:4418bed2-2ae9-4d0a-9acd-d70ab8284c50"
        },
        "subject": {
          "reference": "urn:uuid:43acc1fd-9f9d-4f2f-8649-c290ac7ff847"
        },
        "taken": "y",
        "dosage": [
          {
            "text": "Take one tablet daily",
            "timing": {
              "repeat": {
                "frequency": 1,
                "period": 1,
                "periodUnit": "d"
              }
            },
            "doseQuantity": {
              "value": 1,
              "unit": "tablet",
              "system": "http://snomed.info/sct",
              "code": "154011000036109"
            }
          }
        ]
      }
    },
    {
      "fullUrl": "urn:uuid:4418bed2-2ae9-4d0a-9acd-d70ab8284c50",
      "resource": {
        "resourceType": "Medication",
        "id": "4418bed2-2ae9-4d0a-9acd-d70ab8284c50",
        "text": {
          "status": "generated",
          "div": "<div xmlns=\"http://www.w3.org/1999/xhtml\"><p><b>Generated Narrative with Details</b></p><p><b>id</b>: 4418bed2-2ae9-4d0a-9acd-d70ab8284c50</p><p><b>code</b>: Multi-vitamins <span style=\"background: LightGoldenRodYellow\">(Details )</span></p><p><b>form</b>: tablet <span style=\"background: LightGoldenRodYellow\">(Details : {SNOMED CT code '154011000036109' = '154011000036109', given as 'tablet'})</span></p></div>"
        },
        "code": {
          "text": "Multi-vitamins"
        },
        "form": {
          "coding": [
            {
              "system": "http://snomed.info/sct",
              "code": "154011000036109",
              "display": "tablet"
            }
          ]
        }
      }
    },
    {
      "fullUrl": "urn:uuid:d14a5c15-87c9-4cf8-9047-657189898273",
      "resource": {
        "resourceType": "MedicationStatement",
        "id": "d14a5c15-87c9-4cf8-9047-657189898273",
        "text": {
          "status": "generated",
          "div": "<div xmlns=\"http://www.w3.org/1999/xhtml\"><p><b>Generated Narrative with Details</b></p><p><b>id</b>: d14a5c15-87c9-4cf8-9047-657189898273</p><p><b>status</b>: active</p><p><b>medication</b>: <a href=\"urn:uuid:9574e2d4-863b-11e9-a159-526af7764f64\">urn:uuid:9574e2d4-863b-11e9-a159-526af7764f64</a></p><p><b>subject</b>: <a href=\"urn:uuid:43acc1fd-9f9d-4f2f-8649-c290ac7ff847\">urn:uuid:43acc1fd-9f9d-4f2f-8649-c290ac7ff847</a></p><p><b>taken</b>: y</p><p><b>reasonCode</b>: Osteoarthritis, pain relief <span style=\"background: LightGoldenRodYellow\">(Details )</span></p><p><b>dosage</b>: </p></div>"
        },
        "status": "active",
        "medicationReference": {
          "reference": "urn:uuid:9574e2d4-863b-11e9-a159-526af7764f64"
        },
        "subject": {
          "reference": "urn:uuid:43acc1fd-9f9d-4f2f-8649-c290ac7ff847"
        },
        "taken": "y",
        "reasonCode": [
          {
            "text": "Osteoarthritis, pain relief"
          }
        ],
        "dosage": [
          {
            "text": "Take two tablets every 6 to 8 hours when required; No more than 6 tablets in 24 hours",
            "timing": {
              "repeat": {
                "frequency": 1,
                "period": 6,
                "periodMax": 8,
                "periodUnit": "h"
              }
            },
            "asNeededBoolean": true,
            "doseQuantity": {
              "value": 2,
              "unit": "tablets",
              "system": "http://snomed.info/sct",
              "code": "154011000036109"
            },
            "maxDosePerPeriod": {
              "numerator": {
                "value": 6,
                "unit": "tablets",
                "system": "http://snomed.info/sct",
                "code": "154011000036109"
              },
              "denominator": {
                "value": 24,
                "unit": "hours",
                "system": "http://unitsofmeasure.org",
                "code": "h"
              }
            }
          }
        ]
      }
    },
    {
      "fullUrl": "urn:uuid:9574e2d4-863b-11e9-a159-526af7764f64",
      "resource": {
        "resourceType": "Medication",
        "id": "9574e2d4-863b-11e9-a159-526af7764f64",
        "text": {
          "status": "generated",
          "div": "<div xmlns=\"http://www.w3.org/1999/xhtml\"><p><b>Generated Narrative with Details</b></p><p><b>id</b>: 9574e2d4-863b-11e9-a159-526af7764f64</p><p><b>code</b>: Paracetamol 665mg tablet; Panadol Osteo <span style=\"background: LightGoldenRodYellow\">(Details : {SNOMED CT code '22075011000036103' = '22075011000036103', given as 'paracetamol 665 mg modified release tablet'}; {http://pbs.gov.au/code/item code '8814X' = '8814X', given as 'paracetamol 665 mg modified release tablet, 96'})</span></p><p><b>form</b>: modified release tablet <span style=\"background: LightGoldenRodYellow\">(Details : {SNOMED CT code '261011000036101' = '261011000036101', given as 'modified release tablet'})</span></p><h3>Ingredients</h3><table class=\"grid\"><tr><td>-</td><td><b>Item[x]</b></td><td><b>Amount</b></td></tr><tr><td>*</td><td>Paracetamol-containing product <span style=\"background: LightGoldenRodYellow\">(Details : {SNOMED CT code '90332006' = 'Acetaminophen (product)', given as 'Paracetamol-containing product'})</span></td><td>665 mg<span style=\"background: LightGoldenRodYellow\"> (Details: UCUM code mg = 'mg')</span>/1</td></tr></table></div>"
        },
        "extension": [
          {
            "url": "http://hl7.org.au/fhir/StructureDefinition/medication-brand-name",
            "valueString": "Panadol Osteo"
          },
          {
            "url": "http://hl7.org.au/fhir/StructureDefinition/medication-generic-name",
            "valueString": "Paracetamol 665mg tablet"
          }
        ],
        "code": {
          "coding": [
            {
              "system": "http://snomed.info/sct",
              "code": "22075011000036103",
              "display": "paracetamol 665 mg modified release tablet"
            },
            {
              "system": "http://pbs.gov.au/code/item",
              "code": "8814X",
              "display": "paracetamol 665 mg modified release tablet, 96"
            }
          ],
          "text": "Paracetamol 665mg tablet; Panadol Osteo"
        },
        "form": {
          "coding": [
            {
              "system": "http://snomed.info/sct",
              "code": "261011000036101",
              "display": "modified release tablet"
            }
          ]
        },
        "ingredient": [
          {
            "itemCodeableConcept": {
              "coding": [
                {
                  "system": "http://snomed.info/sct",
                  "code": "90332006",
                  "display": "Paracetamol-containing product"
                }
              ]
            },
            "amount": {
              "numerator": {
                "value": 665,
                "unit": "mg",
                "system": "http://unitsofmeasure.org",
                "code": "mg"
              },
              "denominator": {
                "value": 1
              }
            }
          }
        ]
      }
    },
    {
      "fullUrl": "urn:uuid:17affe2a-6496-437d-8d1a-22baae41a5ae",
      "resource": {
        "resourceType": "MedicationStatement",
        "id": "17affe2a-6496-437d-8d1a-22baae41a5ae",
        "text": {
          "status": "generated",
          "div": "<div xmlns=\"http://www.w3.org/1999/xhtml\"><p><b>Generated Narrative with Details</b></p><p><b>id</b>: 17affe2a-6496-437d-8d1a-22baae41a5ae</p><p><b>status</b>: stopped</p><p><b>medication</b>: <a href=\"urn:uuid:37c3cb4d-37cd-4e4e-985f-d1b8fd44fbb7\">urn:uuid:37c3cb4d-37cd-4e4e-985f-d1b8fd44fbb7</a></p><p><b>effective</b>: ?? --&gt; 01/12/2018 12:00:00 AM</p><p><b>subject</b>: <a href=\"urn:uuid:43acc1fd-9f9d-4f2f-8649-c290ac7ff847\">urn:uuid:43acc1fd-9f9d-4f2f-8649-c290ac7ff847</a></p><p><b>taken</b>: y</p><p><b>dosage</b>: </p></div>"
        },
        "status": "stopped",
        "medicationReference": {
          "reference": "urn:uuid:37c3cb4d-37cd-4e4e-985f-d1b8fd44fbb7"
        },
        "effectivePeriod": {
          "end": "2018-12"
        },
        "subject": {
          "reference": "urn:uuid:43acc1fd-9f9d-4f2f-8649-c290ac7ff847"
        },
        "taken": "y",
        "dosage": [
          {
            "text": "Paracetamol 500mg tablet"
          }
        ]
      }
    },
    {
      "fullUrl": "urn:uuid:37c3cb4d-37cd-4e4e-985f-d1b8fd44fbb7",
      "resource": {
        "resourceType": "Medication",
        "id": "37c3cb4d-37cd-4e4e-985f-d1b8fd44fbb7",
        "text": {
          "status": "generated",
          "div": "<div xmlns=\"http://www.w3.org/1999/xhtml\"><p><b>Generated Narrative with Details</b></p><p><b>id</b>: 37c3cb4d-37cd-4e4e-985f-d1b8fd44fbb7</p><p><b>code</b>: Paracetamol 500 mg tablet <span style=\"background: LightGoldenRodYellow\">(Details : {SNOMED CT code '23628011000036109' = '23628011000036109', given as 'paracetamol 500 mg tablet'})</span></p></div>"
        },
        "code": {
          "coding": [
            {
              "system": "http://snomed.info/sct",
              "code": "23628011000036109",
              "display": "paracetamol 500 mg tablet"
            }
          ],
          "text": "Paracetamol 500 mg tablet"
        }
      }
    },
    {
      "fullUrl": "urn:uuid:3f99bc18-7edf-4e2a-9eae-86629b56d06e",
      "resource": {
        "resourceType": "MedicationStatement",
        "id": "3f99bc18-7edf-4e2a-9eae-86629b56d06e",
        "text": {
          "status": "generated",
          "div": "<div xmlns=\"http://www.w3.org/1999/xhtml\"><p><b>Generated Narrative with Details</b></p><p><b>id</b>: 3f99bc18-7edf-4e2a-9eae-86629b56d06e</p><p><b>status</b>: stopped</p><p><b>medication</b>: <a href=\"Medication/2a506a7c-aab0-4af3-9ea3-3f47ebe16e3d\">Medication/2a506a7c-aab0-4af3-9ea3-3f47ebe16e3d</a></p><p><b>subject</b>: <a href=\"urn:uuid:43acc1fd-9f9d-4f2f-8649-c290ac7ff847\">urn:uuid:43acc1fd-9f9d-4f2f-8649-c290ac7ff847</a></p><p><b>taken</b>: y</p><p><b>dosage</b>: </p></div>"
        },
        "status": "stopped",
        "medicationReference": {
          "reference": "Medication/2a506a7c-aab0-4af3-9ea3-3f47ebe16e3d"
        },
        "subject": {
          "reference": "urn:uuid:43acc1fd-9f9d-4f2f-8649-c290ac7ff847"
        },
        "taken": "y",
        "dosage": [
          {
            "text": "Ibuprofen"
          }
        ]
      }
    },
    {
      "fullUrl": "urn:uuid:2a506a7c-aab0-4af3-9ea3-3f47ebe16e3d",
      "resource": {
        "resourceType": "Medication",
        "id": "2a506a7c-aab0-4af3-9ea3-3f47ebe16e3d",
        "text": {
          "status": "generated",
          "div": "<div xmlns=\"http://www.w3.org/1999/xhtml\"><p><b>Generated Narrative with Details</b></p><p><b>id</b>: 2a506a7c-aab0-4af3-9ea3-3f47ebe16e3d</p><p><b>code</b>: Ibuprofen <span style=\"background: LightGoldenRodYellow\">(Details : {SNOMED CT code '21885011000036105' = '21885011000036105', given as 'Ibuprofen'}; {http://pbs.gov.au/code/item code '3192B' = '3192B', given as 'IBUPROFEN'})</span></p></div>"
        },
        "code": {
          "coding": [
            {
              "system": "http://snomed.info/sct",
              "code": "21885011000036105",
              "display": "Ibuprofen"
            },
            {
              "system": "http://pbs.gov.au/code/item",
              "code": "3192B",
              "display": "IBUPROFEN"
            }
          ],
          "text": "Ibuprofen"
        }
      }
    },
    {
      "fullUrl": "urn:uuid:7f834da9-63f5-4a66-a847-a32c366701ff",
      "resource": {
        "resourceType": "AllergyIntolerance",
        "id": "7f834da9-63f5-4a66-a847-a32c366701ff",
        "text": {
          "status": "generated",
          "div": "<div xmlns=\"http://www.w3.org/1999/xhtml\"><p><b>Generated Narrative with Details</b></p><p><b>id</b>: 7f834da9-63f5-4a66-a847-a32c366701ff</p><p><b>clinicalStatus</b>: active</p><p><b>verificationStatus</b>: unconfirmed</p><p><b>type</b>: allergy</p><p><b>code</b>: ibuprofen <span style=\"background: LightGoldenRodYellow\">(Details : {SNOMED CT code '21885011000036105' = '21885011000036105', given as 'Ibuprofen'})</span></p><p><b>patient</b>: <a href=\"urn:uuid:43acc1fd-9f9d-4f2f-8649-c290ac7ff847\">urn:uuid:43acc1fd-9f9d-4f2f-8649-c290ac7ff847</a></p><p><b>onset</b>: 2016-10</p><h3>Reactions</h3><table class=\"grid\"><tr><td>-</td><td><b>Substance</b></td><td><b>Manifestation</b></td></tr><tr><td>*</td><td>ibuprofen <span style=\"background: LightGoldenRodYellow\">(Details : {SNOMED CT code '21885011000036105' = '21885011000036105', given as 'Ibuprofen'})</span></td><td>Anaphylaxis <span style=\"background: LightGoldenRodYellow\">(Details : {SNOMED CT code '39579001' = 'Anaphylaxis', given as 'Anaphylaxis'})</span></td></tr></table></div>"
        },
        "clinicalStatus": "active",
        "verificationStatus": "unconfirmed",
        "type": "allergy",
        "code": {
          "coding": [
            {
              "system": "http://snomed.info/sct",
              "code": "21885011000036105",
              "display": "Ibuprofen"
            }
          ],
          "text": "ibuprofen"
        },
        "patient": {
          "reference": "urn:uuid:43acc1fd-9f9d-4f2f-8649-c290ac7ff847"
        },
        "onsetDateTime": "2016-10",
        "reaction": [
          {
            "substance": {
              "coding": [
                {
                  "system": "http://snomed.info/sct",
                  "code": "21885011000036105",
                  "display": "Ibuprofen"
                }
              ],
              "text": "ibuprofen"
            },
            "manifestation": [
              {
                "coding": [
                  {
                    "system": "http://snomed.info/sct",
                    "code": "39579001",
                    "display": "Anaphylaxis"
                  }
                ],
                "text": "Anaphylaxis"
              }
            ]
          }
        ]
      }
    }
  ]
}