<?xml version="1.0" encoding="UTF-8"?>

<!--  Conversion of the CDA example 'SML01_Example.xml as a Bundle  -->
<Bundle xmlns="http://hl7.org/fhir">
  <id value="e32a01d0-2610-4c99-ba46-9732aa975d41"/>
  <meta>
    <lastUpdated value="2018-12-11T13:30:00+10:00"/>
  </meta>
  <identifier>
    <system value="urn:ietf:rfc:3986"/>
    <value value="urn:uuid:b8ee2120-18dc-420b-9f6a-d114eda7315b"/>
  </identifier>
  <type value="document"/>
  <entry>
    <fullUrl value="urn:uuid:ff0gh111a-cc0f-4c3d-a4cd-a35ceafff999"/>
    <resource>
      <Composition>
        <id value="c6f90150-465c-4c16-8e99-c4efbda29036"/>
        <meta>
          <profile value="http://ns.electronichealth.net.au/ci/fhir/3.0/StructureDefinition/composition-sml-prac-1"/>
        </meta>
        <language value="en-AU"/>
        <text>
          <status value="additional"/><div xmlns="http://www.w3.org/1999/xhtml" lang="en-AU">

                        <table style="border-collapse:collapse;border-spacing:0;width:100%;">
                            <tr>
                                <th colspan="4" style="border-collapse:collapse;border-spacing:0;font-family:Arial, sans-serif;padding:10px 5px;border-style:solid;border-width:1px;overflow:hidden;word-break:normal;border-color:black;font-weight:bold;font-size:20px;background-color:#333333;color:#ffffff;border:none;text-align:center;vertical-align:top">Pharmacist Shared Medicines List</th>
                            </tr>
                            <tr>
                                <td colspan="4" style="border-collapse:collapse;border-spacing:0;font-family:Arial, sans-serif;font-size:14px;padding:10px 5px;border-style:solid;border-width:1px;overflow:hidden;word-break:normal;border-color:black;font-weight:bold;background-color:#333333;color:#ffffff;border-color:#000000;text-align:center;vertical-align:top">11 Dec 2018</td>
                            </tr>
                            <tr>
                                <td style="border-collapse:collapse;border-spacing:0;font-family:Arial, sans-serif;font-size:14px;padding:10px 5px;border-style:solid;border-width:1px;overflow:hidden;word-break:normal;border-color:black;background-color:#333333;color:#ffffff;border-color:#000000;text-align:center;vertical-align:top">Mac PRIEST</td>
                                <td style="border-collapse:collapse;border-spacing:0;font-family:Arial, sans-serif;font-size:14px;padding:10px 5px;border-style:solid;border-width:1px;overflow:hidden;word-break:normal;border-color:black;background-color:#333333;color:#ffffff;border-color:#000000;text-align:center;vertical-align:top">DoB 9 Mar 1989 (30 yrs) </td>
                                <td style="border-collapse:collapse;border-spacing:0;font-family:Arial, sans-serif;font-size:14px;padding:10px 5px;border-style:solid;border-width:1px;overflow:hidden;word-break:normal;border-color:black;background-color:#333333;color:#ffffff;border-color:#000000;text-align:center;vertical-align:top">Gender MALE</td>
                                <td style="border-collapse:collapse;border-spacing:0;font-family:Arial, sans-serif;font-size:14px;padding:10px 5px;border-style:solid;border-width:1px;overflow:hidden;word-break:normal;border-color:black;background-color:#333333;color:#ffffff;border-color:#000000;text-align:center;vertical-align:top">IHI 8003608333563104 </td>
                            </tr>
                        </table>

                        <h3>Test Org - Retail Pharmacy</h3>
                        <p><b>Address: </b>570 Watcha St, GLEBE, NSW 2037 AU</p>
                        <p><b>HPI-O: </b>8003629900033370</p>
                        <p><b>Pharmacist:</b> Mr. Zane Sinclair (HPI-I: 8003611566708354)</p>
                        <p><b>Email:</b> zsin@gmail.com (work)</p>
                        <p><b>General Practitioner: </b>Test Medical Centre</p>

                        <h3 style="color:red">Allergies and Adverse Reaction</h3>
                        <table style="border-collapse:collapse;border-spacing:0;width:100%;">
                            <tr>
                                <th style="border-collapse:collapse;border-spacing:0;font-family:Arial, sans-serif;font-size:14px;font-weight:normal;padding:10px 5px;border-style:solid;border-width:1px;overflow:hidden;word-break:normal;border-color:black;font-weight:bold;background-color:#9b9b9b;border-color:#000000;text-align:left;vertical-align:top">Substance/Agent</th>
                                <th style="border-collapse:collapse;border-spacing:0;font-family:Arial, sans-serif;font-size:14px;font-weight:normal;padding:10px 5px;border-style:solid;border-width:1px;overflow:hidden;word-break:normal;border-color:black;font-weight:bold;background-color:#9b9b9b;border-color:#000000;text-align:left;vertical-align:top">Reaction Type</th>
                                <th style="border-collapse:collapse;border-spacing:0;font-family:Arial, sans-serif;font-size:14px;font-weight:normal;padding:10px 5px;border-style:solid;border-width:1px;overflow:hidden;word-break:normal;border-color:black;font-weight:bold;background-color:#9b9b9b;border-color:#000000;text-align:left;vertical-align:top">Reaction</th>
                                <th style="border-collapse:collapse;border-spacing:0;font-family:Arial, sans-serif;font-size:14px;font-weight:normal;padding:10px 5px;border-style:solid;border-width:1px;overflow:hidden;word-break:normal;border-color:black;font-weight:bold;background-color:#9b9b9b;border-color:#000000;text-align:left;vertical-align:top">Reaction Onset Date</th>
                            </tr>
                            <tr>
                                <td style="border-collapse:collapse;border-spacing:0;font-family:Arial, sans-serif;font-size:14px;padding:10px 5px;border-style:solid;border-width:1px;overflow:hidden;word-break:normal;border-color:black;border-color:#000000;text-align:left;vertical-align:top">Ibuprofen</td>
                                <td style="border-collapse:collapse;border-spacing:0;font-family:Arial, sans-serif;font-size:14px;padding:10px 5px;border-style:solid;border-width:1px;overflow:hidden;word-break:normal;border-color:black;border-color:#000000;text-align:left;vertical-align:top">Allergic reaction</td>
                                <td style="border-collapse:collapse;border-spacing:0;font-family:Arial, sans-serif;font-size:14px;padding:10px 5px;border-style:solid;border-width:1px;overflow:hidden;word-break:normal;border-color:black;border-color:#000000;text-align:left;vertical-align:top">Anaphylaxis</td>
                                <td style="border-collapse:collapse;border-spacing:0;font-family:Arial, sans-serif;font-size:14px;padding:10px 5px;border-style:solid;border-width:1px;overflow:hidden;word-break:normal;border-color:black;border-color:#000000;text-align:left;vertical-align:top">October 2016</td>
                            </tr>
                        </table>

                        <h3>Current medicines</h3>
                        <table style="border-collapse:collapse;border-spacing:0;width:100%;">
                            <tr>
                                <th style="border-collapse:collapse;border-spacing:0;font-family:Arial, sans-serif;font-size:14px;font-weight:normal;padding:10px 5px;border-style:solid;border-width:1px;overflow:hidden;word-break:normal;border-color:black;font-weight:bold;background-color:#9b9b9b;border-color:#000000;text-align:left;vertical-align:top">Medicine</th>
                                <th style="border-collapse:collapse;border-spacing:0;font-family:Arial, sans-serif;font-size:14px;font-weight:normal;padding:10px 5px;border-style:solid;border-width:1px;overflow:hidden;word-break:normal;border-color:black;font-weight:bold;background-color:#9b9b9b;border-color:#000000;text-align:left;vertical-align:top">Brand Name</th>
                                <th style="border-collapse:collapse;border-spacing:0;font-family:Arial, sans-serif;font-size:14px;font-weight:normal;padding:10px 5px;border-style:solid;border-width:1px;overflow:hidden;word-break:normal;border-color:black;font-weight:bold;background-color:#9b9b9b;border-color:#000000;text-align:left;vertical-align:top">Direction</th>
                                <th style="border-collapse:collapse;border-spacing:0;font-family:Arial, sans-serif;font-size:14px;font-weight:normal;padding:10px 5px;border-style:solid;border-width:1px;overflow:hidden;word-break:normal;border-color:black;font-weight:bold;background-color:#9b9b9b;border-color:#000000;text-align:left;vertical-align:top">Medicine Purpose</th>
                                <th style="border-collapse:collapse;border-spacing:0;font-family:Arial, sans-serif;font-size:14px;font-weight:normal;padding:10px 5px;border-style:solid;border-width:1px;overflow:hidden;word-break:normal;border-color:black;font-weight:bold;background-color:#9b9b9b;border-color:#000000;text-align:left;vertical-align:top">Medicine Status</th>
                                <th style="border-collapse:collapse;border-spacing:0;font-family:Arial, sans-serif;font-size:14px;font-weight:normal;padding:10px 5px;border-style:solid;border-width:1px;overflow:hidden;word-break:normal;border-color:black;font-weight:bold;background-color:#9b9b9b;border-color:#000000;text-align:left;vertical-align:top">Expected End Date</th>
                                <th style="border-collapse:collapse;border-spacing:0;font-family:Arial, sans-serif;font-size:14px;font-weight:normal;padding:10px 5px;border-style:solid;border-width:1px;overflow:hidden;word-break:normal;border-color:black;font-weight:bold;background-color:#9b9b9b;border-color:#000000;text-align:left;vertical-align:top">Special Instructions</th>
                                <th style="border-collapse:collapse;border-spacing:0;font-family:Arial, sans-serif;font-size:14px;font-weight:normal;padding:10px 5px;border-style:solid;border-width:1px;overflow:hidden;word-break:normal;border-color:black;font-weight:bold;background-color:#9b9b9b;border-color:#000000;text-align:left;vertical-align:top">Medicine Image</th>
                                <th style="border-collapse:collapse;border-spacing:0;font-family:Arial, sans-serif;font-size:14px;font-weight:normal;padding:10px 5px;border-style:solid;border-width:1px;overflow:hidden;word-break:normal;border-color:black;font-weight:bold;background-color:#9b9b9b;border-color:#000000;text-align:left;vertical-align:top">Physical Description</th>
                            </tr>
                            <tr>
                                <td style="border-collapse:collapse;border-spacing:0;font-family:Arial, sans-serif;font-size:14px;padding:10px 5px;border-style:solid;border-width:1px;overflow:hidden;word-break:normal;border-color:black;border-color:#000000;text-align:left;vertical-align:top"/>
                                <td style="border-collapse:collapse;border-spacing:0;font-family:Arial, sans-serif;font-size:14px;padding:10px 5px;border-style:solid;border-width:1px;overflow:hidden;word-break:normal;border-color:black;border-color:#000000;text-align:left;vertical-align:top">Ferro-Grad C</td>
                                <td style="border-collapse:collapse;border-spacing:0;font-family:Arial, sans-serif;font-size:14px;padding:10px 5px;border-style:solid;border-width:1px;overflow:hidden;word-break:normal;border-color:black;border-color:#000000;text-align:left;vertical-align:top">Take one tablet daily</td>
                                <td style="border-collapse:collapse;border-spacing:0;font-family:Arial, sans-serif;font-size:14px;padding:10px 5px;border-style:solid;border-width:1px;overflow:hidden;word-break:normal;border-color:black;border-color:#000000;text-align:left;vertical-align:top">Iron supplement</td>
                                <td style="border-collapse:collapse;border-spacing:0;font-family:Arial, sans-serif;font-size:14px;padding:10px 5px;border-style:solid;border-width:1px;overflow:hidden;word-break:normal;border-color:black;border-color:#000000;text-align:left;vertical-align:top">Unchanged</td>
                                <td style="border-collapse:collapse;border-spacing:0;font-family:Arial, sans-serif;font-size:14px;padding:10px 5px;border-style:solid;border-width:1px;overflow:hidden;word-break:normal;border-color:black;border-color:#000000;text-align:left;vertical-align:top"/>
                                <td style="border-collapse:collapse;border-spacing:0;font-family:Arial, sans-serif;font-size:14px;padding:10px 5px;border-style:solid;border-width:1px;overflow:hidden;word-break:normal;border-color:black;border-color:#000000;text-align:left;vertical-align:top"/>
                                <td style="border-collapse:collapse;border-spacing:0;font-family:Arial, sans-serif;font-size:14px;padding:10px 5px;border-style:solid;border-width:1px;overflow:hidden;word-break:normal;border-color:black;border-color:#000000;text-align:left;vertical-align:top"/>
                                <td style="border-collapse:collapse;border-spacing:0;font-family:Arial, sans-serif;font-size:14px;padding:10px 5px;border-style:solid;border-width:1px;overflow:hidden;word-break:normal;border-color:black;border-color:#000000;text-align:left;vertical-align:top"/>
                            </tr>
                            <tr>
                                <td style="border-collapse:collapse;border-spacing:0;font-family:Arial, sans-serif;font-size:14px;padding:10px 5px;border-style:solid;border-width:1px;overflow:hidden;word-break:normal;border-color:black;border-color:#000000;text-align:left;vertical-align:top">Amoxicillin 875 mg + clavulanic acid 125 mg tablet</td>
                                <td style="border-collapse:collapse;border-spacing:0;font-family:Arial, sans-serif;font-size:14px;padding:10px 5px;border-style:solid;border-width:1px;overflow:hidden;word-break:normal;border-color:black;border-color:#000000;text-align:left;vertical-align:top">Augmentin Duo Forte</td>
                                <td style="border-collapse:collapse;border-spacing:0;font-family:Arial, sans-serif;font-size:14px;padding:10px 5px;border-style:solid;border-width:1px;overflow:hidden;word-break:normal;border-color:black;border-color:#000000;text-align:left;vertical-align:top">Take one tablet twice a day</td>
                                <td style="border-collapse:collapse;border-spacing:0;font-family:Arial, sans-serif;font-size:14px;padding:10px 5px;border-style:solid;border-width:1px;overflow:hidden;word-break:normal;border-color:black;border-color:#000000;text-align:left;vertical-align:top">Chest infection</td>
                                <td style="border-collapse:collapse;border-spacing:0;font-family:Arial, sans-serif;font-size:14px;padding:10px 5px;border-style:solid;border-width:1px;overflow:hidden;word-break:normal;border-color:black;border-color:#000000;text-align:left;vertical-align:top">New</td>
                                <td style="border-collapse:collapse;border-spacing:0;font-family:Arial, sans-serif;font-size:14px;padding:10px 5px;border-style:solid;border-width:1px;overflow:hidden;word-break:normal;border-color:black;border-color:#000000;text-align:left;vertical-align:top">20/01/2019</td>
                                <td style="border-collapse:collapse;border-spacing:0;font-family:Arial, sans-serif;font-size:14px;padding:10px 5px;border-style:solid;border-width:1px;overflow:hidden;word-break:normal;border-color:black;border-color:#000000;text-align:left;vertical-align:top"/>
                                <td style="border-collapse:collapse;border-spacing:0;font-family:Arial, sans-serif;font-size:14px;padding:10px 5px;border-style:solid;border-width:1px;overflow:hidden;word-break:normal;border-color:black;border-color:#000000;text-align:left;vertical-align:top"/>
                                <td style="border-collapse:collapse;border-spacing:0;font-family:Arial, sans-serif;font-size:14px;padding:10px 5px;border-style:solid;border-width:1px;overflow:hidden;word-break:normal;border-color:black;border-color:#000000;text-align:left;vertical-align:top"/>
                            </tr>
                            <tr>
                                <td style="border-collapse:collapse;border-spacing:0;font-family:Arial, sans-serif;font-size:14px;padding:10px 5px;border-style:solid;border-width:1px;overflow:hidden;word-break:normal;border-color:black;border-color:#000000;text-align:left;vertical-align:top">Metformin 500mg tablet</td>
                                <td style="border-collapse:collapse;border-spacing:0;font-family:Arial, sans-serif;font-size:14px;padding:10px 5px;border-style:solid;border-width:1px;overflow:hidden;word-break:normal;border-color:black;border-color:#000000;text-align:left;vertical-align:top">Sandoz</td>
                                <td style="border-collapse:collapse;border-spacing:0;font-family:Arial, sans-serif;font-size:14px;padding:10px 5px;border-style:solid;border-width:1px;overflow:hidden;word-break:normal;border-color:black;border-color:#000000;text-align:left;vertical-align:top">Take one tablet twice a day</td>
                                <td style="border-collapse:collapse;border-spacing:0;font-family:Arial, sans-serif;font-size:14px;padding:10px 5px;border-style:solid;border-width:1px;overflow:hidden;word-break:normal;border-color:black;border-color:#000000;text-align:left;vertical-align:top">Reduce blood sugar</td>
                                <td style="border-collapse:collapse;border-spacing:0;font-family:Arial, sans-serif;font-size:14px;padding:10px 5px;border-style:solid;border-width:1px;overflow:hidden;word-break:normal;border-color:black;border-color:#000000;text-align:left;vertical-align:top">Amended</td>
                                <td style="border-collapse:collapse;border-spacing:0;font-family:Arial, sans-serif;font-size:14px;padding:10px 5px;border-style:solid;border-width:1px;overflow:hidden;word-break:normal;border-color:black;border-color:#000000;text-align:left;vertical-align:top"/>
                                <td style="border-collapse:collapse;border-spacing:0;font-family:Arial, sans-serif;font-size:14px;padding:10px 5px;border-style:solid;border-width:1px;overflow:hidden;word-break:normal;border-color:black;border-color:#000000;text-align:left;vertical-align:top"/>
                                <td style="border-collapse:collapse;border-spacing:0;font-family:Arial, sans-serif;font-size:14px;padding:10px 5px;border-style:solid;border-width:1px;overflow:hidden;word-break:normal;border-color:black;border-color:#000000;text-align:left;vertical-align:top"/>
                                <td style="border-collapse:collapse;border-spacing:0;font-family:Arial, sans-serif;font-size:14px;padding:10px 5px;border-style:solid;border-width:1px;overflow:hidden;word-break:normal;border-color:black;border-color:#000000;text-align:left;vertical-align:top">White and round with 227 imprinted</td>
                            </tr>
                            <tr>
                                <td style="border-collapse:collapse;border-spacing:0;font-family:Arial, sans-serif;font-size:14px;padding:10px 5px;border-style:solid;border-width:1px;overflow:hidden;word-break:normal;border-color:black;border-color:#000000;text-align:left;vertical-align:top">Multi-vitamins</td>
                                <td style="border-collapse:collapse;border-spacing:0;font-family:Arial, sans-serif;font-size:14px;padding:10px 5px;border-style:solid;border-width:1px;overflow:hidden;word-break:normal;border-color:black;border-color:#000000;text-align:left;vertical-align:top"/>
                                <td style="border-collapse:collapse;border-spacing:0;font-family:Arial, sans-serif;font-size:14px;padding:10px 5px;border-style:solid;border-width:1px;overflow:hidden;word-break:normal;border-color:black;border-color:#000000;text-align:left;vertical-align:top">Take one tablet daily</td>
                                <td style="border-collapse:collapse;border-spacing:0;font-family:Arial, sans-serif;font-size:14px;padding:10px 5px;border-style:solid;border-width:1px;overflow:hidden;word-break:normal;border-color:black;border-color:#000000;text-align:left;vertical-align:top"/>
                                <td style="border-collapse:collapse;border-spacing:0;font-family:Arial, sans-serif;font-size:14px;padding:10px 5px;border-style:solid;border-width:1px;overflow:hidden;word-break:normal;border-color:black;border-color:#000000;text-align:left;vertical-align:top">Unchanged</td>
                                <td style="border-collapse:collapse;border-spacing:0;font-family:Arial, sans-serif;font-size:14px;padding:10px 5px;border-style:solid;border-width:1px;overflow:hidden;word-break:normal;border-color:black;border-color:#000000;text-align:left;vertical-align:top"/>
                                <td style="border-collapse:collapse;border-spacing:0;font-family:Arial, sans-serif;font-size:14px;padding:10px 5px;border-style:solid;border-width:1px;overflow:hidden;word-break:normal;border-color:black;border-color:#000000;text-align:left;vertical-align:top"/>
                                <td style="border-collapse:collapse;border-spacing:0;font-family:Arial, sans-serif;font-size:14px;padding:10px 5px;border-style:solid;border-width:1px;overflow:hidden;word-break:normal;border-color:black;border-color:#000000;text-align:left;vertical-align:top"/>
                                <td style="border-collapse:collapse;border-spacing:0;font-family:Arial, sans-serif;font-size:14px;padding:10px 5px;border-style:solid;border-width:1px;overflow:hidden;word-break:normal;border-color:black;border-color:#000000;text-align:left;vertical-align:top"/>
                            </tr>
                            <tr>
                                <td style="border-collapse:collapse;border-spacing:0;font-family:Arial, sans-serif;font-size:14px;padding:10px 5px;border-style:solid;border-width:1px;overflow:hidden;word-break:normal;border-color:black;border-color:#000000;text-align:left;vertical-align:top">Paracetamol 665mg tablet</td>
                                <td style="border-collapse:collapse;border-spacing:0;font-family:Arial, sans-serif;font-size:14px;padding:10px 5px;border-style:solid;border-width:1px;overflow:hidden;word-break:normal;border-color:black;border-color:#000000;text-align:left;vertical-align:top">Panadol Osteo</td>
                                <td style="border-collapse:collapse;border-spacing:0;font-family:Arial, sans-serif;font-size:14px;padding:10px 5px;border-style:solid;border-width:1px;overflow:hidden;word-break:normal;border-color:black;border-color:#000000;text-align:left;vertical-align:top">Take two tablets every 6 to 8 hours when required</td>
                                <td style="border-collapse:collapse;border-spacing:0;font-family:Arial, sans-serif;font-size:14px;padding:10px 5px;border-style:solid;border-width:1px;overflow:hidden;word-break:normal;border-color:black;border-color:#000000;text-align:left;vertical-align:top">Osteoarthritis, pain relief</td>
                                <td style="border-collapse:collapse;border-spacing:0;font-family:Arial, sans-serif;font-size:14px;padding:10px 5px;border-style:solid;border-width:1px;overflow:hidden;word-break:normal;border-color:black;border-color:#000000;text-align:left;vertical-align:top">Unchanged</td>
                                <td style="border-collapse:collapse;border-spacing:0;font-family:Arial, sans-serif;font-size:14px;padding:10px 5px;border-style:solid;border-width:1px;overflow:hidden;word-break:normal;border-color:black;border-color:#000000;text-align:left;vertical-align:top"/>
                                <td style="border-collapse:collapse;border-spacing:0;font-family:Arial, sans-serif;font-size:14px;padding:10px 5px;border-style:solid;border-width:1px;overflow:hidden;word-break:normal;border-color:black;border-color:#000000;text-align:left;vertical-align:top">No more than 6 tablets in 24 hours</td>
                                <td style="border-collapse:collapse;border-spacing:0;font-family:Arial, sans-serif;font-size:14px;padding:10px 5px;border-style:solid;border-width:1px;overflow:hidden;word-break:normal;border-color:black;border-color:#000000;text-align:left;vertical-align:top"/>
                                <td style="border-collapse:collapse;border-spacing:0;font-family:Arial, sans-serif;font-size:14px;padding:10px 5px;border-style:solid;border-width:1px;overflow:hidden;word-break:normal;border-color:black;border-color:#000000;text-align:left;vertical-align:top"/>
                            </tr>
                        </table>

                        <h3>Ceased medicines</h3>
                        <table style="border-collapse:collapse;border-spacing:0;width:100%;">
                            <tr>
                                <th style="border-collapse:collapse;border-spacing:0;font-family:Arial, sans-serif;font-size:14px;font-weight:normal;padding:10px 5px;border-style:solid;border-width:1px;overflow:hidden;word-break:normal;border-color:black;font-weight:bold;background-color:#9b9b9b;border-color:#000000;text-align:left;vertical-align:top">Medicine</th>
                                <th style="border-collapse:collapse;border-spacing:0;font-family:Arial, sans-serif;font-size:14px;font-weight:normal;padding:10px 5px;border-style:solid;border-width:1px;overflow:hidden;word-break:normal;border-color:black;font-weight:bold;background-color:#9b9b9b;border-color:#000000;text-align:left;vertical-align:top">Reason for ceasing medicine</th>
                                <th style="border-collapse:collapse;border-spacing:0;font-family:Arial, sans-serif;font-size:14px;font-weight:normal;padding:10px 5px;border-style:solid;border-width:1px;overflow:hidden;word-break:normal;border-color:black;font-weight:bold;background-color:#9b9b9b;border-color:#000000;text-align:left;vertical-align:top">Ceased date</th>
                            </tr>
                            <tr>
                                <td style="border-collapse:collapse;border-spacing:0;font-family:Arial, sans-serif;font-size:14px;padding:10px 5px;border-style:solid;border-width:1px;overflow:hidden;word-break:normal;border-color:black;border-color:#000000;text-align:left;vertical-align:top">Paracetamol 500 mg tablet</td>
                                <td style="border-collapse:collapse;border-spacing:0;font-family:Arial, sans-serif;font-size:14px;padding:10px 5px;border-style:solid;border-width:1px;overflow:hidden;word-break:normal;border-color:black;border-color:#000000;text-align:left;vertical-align:top">Stopped; duplicated medicine</td>
                                <td style="border-collapse:collapse;border-spacing:0;font-family:Arial, sans-serif;font-size:14px;padding:10px 5px;border-style:solid;border-width:1px;overflow:hidden;word-break:normal;border-color:black;border-color:#000000;text-align:left;vertical-align:top">Dec 2018</td>
                            </tr>
                            <tr>
                                <td style="border-collapse:collapse;border-spacing:0;font-family:Arial, sans-serif;font-size:14px;padding:10px 5px;border-style:solid;border-width:1px;overflow:hidden;word-break:normal;border-color:black;border-color:#000000;text-align:left;vertical-align:top">Ibuprofen</td>
                                <td style="border-collapse:collapse;border-spacing:0;font-family:Arial, sans-serif;font-size:14px;padding:10px 5px;border-style:solid;border-width:1px;overflow:hidden;word-break:normal;border-color:black;border-color:#000000;text-align:left;vertical-align:top">Allergic Reaction</td>
                                <td style="border-collapse:collapse;border-spacing:0;font-family:Arial, sans-serif;font-size:14px;padding:10px 5px;border-style:solid;border-width:1px;overflow:hidden;word-break:normal;border-color:black;border-color:#000000;text-align:left;vertical-align:top"/>
                            </tr>
                        </table>

                        <p>Packed medicines: No</p>
                        <p>Please review this list with your pharmacist on or soon after 02/Apr/2019. Community pharmacy medicine review</p>
                    </div>
        </text>
        <extension url="http://hl7.org.au/fhir/StructureDefinition/composition-author-role">
          <valueReference>
          <!--  reference to Bundle entry of PractitionerRole resource  -->
            <reference value="urn:uuid:eebd7c94-e124-4c2b-95dc-a6aebbe7bb4d"/>
          </valueReference>
        </extension>
        <status value="final"/>
        <type>
          <coding>
            <system value="http://loinc.org"/>
            <code value="56445-0"/>
            <display value="Medication summary"/>
          </coding>
        </type>
        <subject>
        <!--  reference to Bundle entry of Patient resource  -->
          <reference value="urn:uuid:43acc1fd-9f9d-4f2f-8649-c290ac7ff847"/>
        </subject>
        <encounter>
        <!--  reference to Bundle entry of Encounter resource  -->
          <reference value="urn:uuid:038f9aaa-6c3d-4681-b9de-455de06a86d3"/>
        </encounter>
        <date value="2018-12-11T13:30:00+10:00"/>
        <author>
        <!--  reference to Bundle entry of Practitioner resource  -->
          <reference value="urn:uuid:6312677b-2e4a-4841-a986-915905e01931"/>
        </author>
        <title value="Pharmacist Shared Medicines List"/>
        <attester>
          <mode value="legal"/>
          <time value="2018-12-11T13:30:00+10:00"/>
          <party>
          <!--  reference to Bundle entry of Practitioner resource  -->
            <reference value="urn:uuid:6312677b-2e4a-4841-a986-915905e01931"/>
          </party>
        </attester>
        <custodian>
        <!--  reference to Bundle entry of Organization resource  -->
          <reference value="urn:uuid:24391534-dbe5-44f0-af74-07ca016e7446"/>
        </custodian>
        <section>
          <title value="Medicines List"/>
          <code>
            <coding>
              <system value="http://loinc.org"/>
              <code value="10160-0"/>
              <display value="History of Medication use Narrative"/>
            </coding>
          </code>
          <text>
            <status value="additional"/><div xmlns="http://www.w3.org/1999/xhtml">
                            <table>
                                <caption>Current medicines</caption>
                                <thead>
                                    <tr>
                                        <th>Medicine</th>
                                        <th>Brand name</th>
                                        <th>Direction</th>
                                        <th>Medicine purpose</th>
                                        <th>Medicine status</th>
                                        <th>Expected end date</th>
                                        <th>Special instructions</th>
                                        <th>Medicine Image</th>
                                        <th>Physical Description</th>
                                    </tr>
                                </thead>
                                <tbody>
                                    <tr>
                                        <td/>
                                        <td>Ferro-Grad C</td>
                                        <td>Take one tablet daily</td>
                                        <td>Iron supplement</td>
                                        <td>Unchanged</td>
                                        <td/>
                                        <td/>
                                        <td/>
                                        <td/>
                                    </tr>
                                    <tr>
                                        <td>Amoxicillin 875 mg + clavulanic acid 125 mg tablet</td>
                                        <td>Augmentin Duo Forte</td>
                                        <td>Take one tablet twice a day</td>
                                        <td>Chest infection</td>
                                        <td>New</td>
                                        <td>20/01/2019</td>
                                        <td/>
                                        <td/>
                                        <td/>
                                    </tr>
                                    <tr>
                                        <td>Metformin 500mg tablet</td>
                                        <td>Sandoz</td>
                                        <td>Take one tablet twice a day</td>
                                        <td>Reduce blood sugar</td>
                                        <td>Amended</td>
                                        <td/>
                                        <td/>
                                        <td/>
                                        <td>White and round with 227 imprinted</td>
                                    </tr>
                                    <tr>
                                        <td>Multi-vitamins</td>
                                        <td/>
                                        <td>Take one tablet daily</td>
                                        <td/>
                                        <td>Unchanged</td>
                                        <td/>
                                        <td/>
                                        <td/>
                                        <td/>
                                    </tr>
                                    <tr>
                                        <td>Paracetamol 665 mg tablet</td>
                                        <td>Panadol Osteo</td>
                                        <td>Take two tablets every 6 to 8 hours when required</td>
                                        <td>Osteoarthritis, pain relief</td>
                                        <td>Unchanged</td>
                                        <td/>
                                        <td>No more than 6 tablets in 24 hours</td>
                                        <td/>
                                        <td/>
                                    </tr>
                                </tbody>
                            </table>
                            <table>
                                <caption>Ceased medicines</caption>
                                <thead>
                                    <tr>
                                        <th>Medicine</th>
                                        <th>Reason for ceasing medicine</th>
                                        <th>Ceased date</th>
                                    </tr>
                                </thead>
                                <tbody>
                                    <tr>
                                        <td/>
                                        <td>Paracetamol 500mg tablet</td>
                                        <td>Stopped; duplicated medicine</td>
                                        <td>Dec 2018</td>
                                    </tr>
                                    <tr>
                                        <td>Ibuprofen</td>
                                        <td>Allergic Reaction</td>
                                        <td/>
                                    </tr>
                                </tbody>
                            </table>
                            <p>Packed medicines: No</p>
                            <p>Please review this list with your pharmacist on or soon after 02/Apr/2019. Community pharmacy medicine review</p>
                        </div>
          </text>
          <entry>
          <!--  reference to Bundle entry of List resource  -->
            <reference value="urn:uuid:e3677c50-8940-4793-bc43-72a33e5b6460"/>
          </entry>
        </section>
        <section>
          <title value="Allergies"/>
          <code>
            <coding>
              <system value="http://loinc.org"/>
              <code value="48765-2"/>
              <display value="Allergies &amp;or adverse reactions"/>
            </coding>
          </code>
          <text>
            <status value="additional"/><div xmlns="http://www.w3.org/1999/xhtml">
                            <table>
                                <caption>Allergies</caption>
                                <thead>
                                    <tr>
                                        <th>Substance/Agent</th>
                                        <th>Reaction Type</th>
                                        <th>Reaction</th>
                                        <th>Reaction Onset Date</th>
                                    </tr>
                                </thead>
                                <tbody>
                                    <tr>
                                        <td>Ibuprofen</td>
                                        <td>Allergic reaction</td>
                                        <td>Anaphylaxis</td>
                                        <td>October 2016</td>
                                    </tr>
                                </tbody>
                            </table>
                        </div>
          </text>
          <entry>
          <!--  reference to Bundle entry of AllergyIntolerance resource  -->
            <reference value="urn:uuid:7f834da9-63f5-4a66-a847-a32c366701ff"/>
          </entry>
        </section>
      </Composition>
    </resource>
  </entry>
  <entry>
    <fullUrl value="urn:uuid:43acc1fd-9f9d-4f2f-8649-c290ac7ff847"/>
    <resource>
      <Patient>
        <id value="43acc1fd-9f9d-4f2f-8649-c290ac7ff847"/>
        <text>
          <status value="generated"/><div xmlns="http://www.w3.org/1999/xhtml"><p><b>Generated Narrative with Details</b></p><p><b>id</b>: 43acc1fd-9f9d-4f2f-8649-c290ac7ff847</p><p><b>identifier</b>: National unique individual identifier = 8003608333563104</p><p><b>name</b>: Mac PRIEST </p><p><b>gender</b>: male</p><p><b>birthDate</b>: 09/03/1989</p><p><b>generalPractitioner</b>: <a href="urn:uuid:b738af06-18f5-48b8-a0d6-96d0e97c0634">urn:uuid:b738af06-18f5-48b8-a0d6-96d0e97c0634</a></p></div>
        </text>
        <extension url="http://hl7.org.au/fhir/StructureDefinition/indigenous-status">
          <valueCoding>
            <system value="https://healthterminologies.gov.au/fhir/CodeSystem/australian-indigenous-status-1"/>
            <code value="4"/>
            <display value="Neither Aboriginal nor Torres Strait Islander origin"/>
          </valueCoding>
        </extension>
        <identifier>
          <type>
            <coding>
              <system value="http://hl7.org/fhir/v2/0203"/>
              <code value="NI"/>
              <display value="National unique individual identifier"/>
            </coding>
          </type>
          <system value="http://ns.electronichealth.net.au/id/hi/ihi/1.0"/>
          <value value="8003608333563104"/>
        </identifier>
        <name>
          <family value="PRIEST"/>
          <given value="Mac"/>
        </name>
        <gender value="male"/>
        <birthDate value="1989-03-09"/>
        <generalPractitioner>
        <!--  reference to Bundle entry of Organization resource  -->
          <reference value="urn:uuid:b738af06-18f5-48b8-a0d6-96d0e97c0634"/>
        </generalPractitioner>
      </Patient>
    </resource>
  </entry>
  <entry>
    <fullUrl value="urn:uuid:6312677b-2e4a-4841-a986-915905e01931"/>
    <resource>
      <Practitioner>
        <id value="6312677b-2e4a-4841-a986-915905e01931"/>
        <text>
          <status value="generated"/><div xmlns="http://www.w3.org/1999/xhtml"><p><b>Generated Narrative with Details</b></p><p><b>id</b>: 6312677b-2e4a-4841-a986-915905e01931</p><p><b>identifier</b>: HPI-I = 8003611566708354</p><p><b>name</b>: Zane Sinclair </p><h3>Qualifications</h3><table class="grid"><tr><td>-</td><td><b>Code</b></td></tr><tr><td>*</td><td>Bachelor of Pharmacy <span style="background: LightGoldenRodYellow">(Details )</span></td></tr></table></div>
        </text>
        <identifier>
          <type>
            <coding>
              <system value="http://hl7.org/fhir/v2/0203"/>
              <code value="NPI"/>
              <display value="National provider identifier"/>
            </coding>
            <text value="HPI-I"/>
          </type>
          <system value="http://ns.electronichealth.net.au/id/hi/hpii/1.0"/>
          <value value="8003611566708354"/>
        </identifier>
        <name>
          <family value="Sinclair"/>
          <given value="Zane"/>
          <prefix value="Mr."/>
        </name>
        <qualification>
          <code>
            <text value="Bachelor of Pharmacy"/>
          </code>
        </qualification>
      </Practitioner>
    </resource>
  </entry>
  <entry>
    <fullUrl value="urn:uuid:eebd7c94-e124-4c2b-95dc-a6aebbe7bb4d"/>
    <resource>
      <PractitionerRole>
        <id value="eebd7c94-e124-4c2b-95dc-a6aebbe7bb4d"/>
        <text>
          <status value="generated"/><div xmlns="http://www.w3.org/1999/xhtml"><p><b>Generated Narrative with Details</b></p><p><b>id</b>: eebd7c94-e124-4c2b-95dc-a6aebbe7bb4d</p><p><b>identifier</b>: HPI-I = 8003611566708354</p><p><b>practitioner</b>: <a href="urn:uuid:6312677b-2e4a-4841-a986-915905e01931">urn:uuid:6312677b-2e4a-4841-a986-915905e01931</a></p><p><b>organization</b>: <a href="urn:uuid:24391534-dbe5-44f0-af74-07ca016e7446">urn:uuid:24391534-dbe5-44f0-af74-07ca016e7446</a></p><p><b>code</b>: Pharmacist <span style="background: LightGoldenRodYellow">(Details : {http://www.abs.gov.au/ausstats/abs@.nsf/mf/1220.0 code '251513' = '251513', given as 'Retail Pharmacist'})</span></p><p><b>telecom</b>: zsin@gmail.com(WORK)</p></div>
        </text>
        <identifier>
          <type>
            <coding>
              <system value="http://hl7.org/fhir/v2/0203"/>
              <code value="NPI"/>
              <display value="National provider identifier"/>
            </coding>
            <text value="HPI-I"/>
          </type>
          <system value="http://ns.electronichealth.net.au/id/hi/hpii/1.0"/>
          <value value="8003611566708354"/>
        </identifier>
        <practitioner>
        <!--  reference to Bundle entry of Practitioner resource  -->
          <reference value="urn:uuid:6312677b-2e4a-4841-a986-915905e01931"/>
        </practitioner>
        <organization>
        <!--  reference to Bundle entry of Organization resource  -->
          <reference value="urn:uuid:24391534-dbe5-44f0-af74-07ca016e7446"/>
        </organization>
        <code>
          <coding>
            <system value="http://www.abs.gov.au/ausstats/abs@.nsf/mf/1220.0"/>
            <code value="251513"/>
            <display value="Retail Pharmacist"/>
          </coding>
          <text value="Pharmacist"/>
        </code>
        <telecom>
          <system value="email"/>
          <value value="zsin@gmail.com"/>
          <use value="work"/>
        </telecom>
      </PractitionerRole>
    </resource>
  </entry>
  <entry>
    <fullUrl value="urn:uuid:24391534-dbe5-44f0-af74-07ca016e7446"/>
    <resource>
      <Organization>
        <id value="24391534-dbe5-44f0-af74-07ca016e7446"/>
        <text>
          <status value="generated"/><div xmlns="http://www.w3.org/1999/xhtml"><p><b>Generated Narrative with Details</b></p><p><b>id</b>: 24391534-dbe5-44f0-af74-07ca016e7446</p><p><b>identifier</b>: HPI-O = 8003629900033370</p><p><b>type</b>: Retail Pharmacy <span style="background: LightGoldenRodYellow">(Details : {http://www.abs.gov.au/ausstats/abs@.nsf/mf/1292.0 code '4271' = '4271', given as 'Retail Pharmacy'})</span></p><p><b>name</b>: Test Org - Retail Pharmacy</p><p><b>address</b>: 570 Whatcha St GLEBE NSW 2037 AU (WORK)</p></div>
        </text>
        <identifier>
          <type>
            <coding>
              <system value="http://hl7.org.au/fhir/v2/0203"/>
              <code value="NOI"/>
            </coding>
            <text value="HPI-O"/>
          </type>
          <system value="http://ns.electronichealth.net.au/id/hi/hpio/1.0"/>
          <value value="8003629900033370"/>
        </identifier>
        <type>
          <coding>
            <system value="http://www.abs.gov.au/ausstats/abs@.nsf/mf/1292.0"/>
            <code value="4271"/>
            <display value="Retail Pharmacy"/>
          </coding>
        </type>
        <name value="Test Org - Retail Pharmacy"/>
        <address>
          <use value="work"/>
          <line value="570 Whatcha St"/>
          <city value="GLEBE"/>
          <state value="NSW"/>
          <postalCode value="2037"/>
          <country value="AU"/>
        </address>
      </Organization>
    </resource>
  </entry>
  <entry>
    <fullUrl value="urn:uuid:b738af06-18f5-48b8-a0d6-96d0e97c0634"/>
    <resource>
      <Organization>
        <id value="b738af06-18f5-48b8-a0d6-96d0e97c0634"/>
        <text>
          <status value="generated"/><div xmlns="http://www.w3.org/1999/xhtml"><p><b>Generated Narrative with Details</b></p><p><b>id</b>: b738af06-18f5-48b8-a0d6-96d0e97c0634</p><p><b>type</b>: Medical centre <span style="background: LightGoldenRodYellow">(Details : {SNOMED CT code '288565001' = 'Medical center', given as 'Medical centre'})</span></p><p><b>name</b>: Test Medical Centre</p></div>
        </text>
        <type>
          <coding>
            <system value="http://snomed.info/sct"/>
            <code value="288565001"/>
            <display value="Medical centre"/>
          </coding>
        </type>
        <name value="Test Medical Centre"/>
      </Organization>
    </resource>
  </entry>
  <entry>
    <fullUrl value="urn:uuid:038f9aaa-6c3d-4681-b9de-455de06a86d3"/>
    <resource>
      <Encounter>
        <id value="038f9aaa-6c3d-4681-b9de-455de06a86d3"/>
        <text>
          <status value="generated"/><div xmlns="http://www.w3.org/1999/xhtml"><p><b>Generated Narrative with Details</b></p><p><b>id</b>: 038f9aaa-6c3d-4681-b9de-455de06a86d3</p><p><b>status</b>: finished</p><p><b>type</b>: Community pharmacy medicine review <span style="background: LightGoldenRodYellow">(Details : {SNOMED CT code '1348961000168104' = '1348961000168104', given as 'Community pharmacy medicines review'})</span></p><p><b>subject</b>: <a href="urn:uuid:43acc1fd-9f9d-4f2f-8649-c290ac7ff847">urn:uuid:43acc1fd-9f9d-4f2f-8649-c290ac7ff847</a></p><p><b>period</b>: 11/12/2018 10:00:00 AM --&gt; 11/12/2018 1:30:00 PM</p></div>
        </text>
        <status value="finished"/>
        <type>
          <coding>
            <system value="http://snomed.info/sct"/>
            <code value="1348961000168104"/>
            <display value="Community pharmacy medicines review"/>
          </coding>
          <text value="Community pharmacy medicine review"/>
        </type>
        <subject>
        <!--  reference to Bundle entry of Patient resource  -->
          <reference value="urn:uuid:43acc1fd-9f9d-4f2f-8649-c290ac7ff847"/>
        </subject>
        <period>
          <start value="2018-12-11T10:00:00+10:00"/>
          <end value="2018-12-11T13:30:00+10:00"/>
        </period>
      </Encounter>
    </resource>
  </entry>
  <entry>
    <fullUrl value="urn:uuid:e3677c50-8940-4793-bc43-72a33e5b6460"/>
    <resource>
      <List>
        <id value="e3677c50-8940-4793-bc43-72a33e5b6460"/>
        <meta>
          <profile value="http://ns.electronichealth.net.au/ci/fhir/3.0/StructureDefinition/list-sml-pracchanges-1"/>
        </meta>
        <language value="en-AU"/>
        <text>
          <status value="additional"/><div xmlns="http://www.w3.org/1999/xhtml">
                        <table>
                            <caption>Current medicines</caption>
                            <thead>
                                <tr>
                                    <th>Medicine</th>
                                    <th>Brand name</th>
                                    <th>Direction</th>
                                    <th>Medicine purpose</th>
                                    <th>Medicine status</th>
                                    <th>Expected end date</th>
                                    <th>Special instructions</th>
                                    <th>Medicine Image</th>
                                    <th>Physical Description</th>
                                </tr>
                            </thead>
                            <tbody>
                                <tr>
                                    <td/>
                                    <td>Ferro-Grad C</td>
                                    <td>Take one tablet daily</td>
                                    <td>Iron supplement</td>
                                    <td>Unchanged</td>
                                    <td/>
                                    <td/>
                                    <td/>
                                    <td/>
                                </tr>
                                <tr>
                                    <td>Amoxicillin 875 mg + clavulanic acid 125 mg tablet</td>
                                    <td>Augmentin Duo Forte</td>
                                    <td>Take one tablet twice a day</td>
                                    <td>Chest infection</td>
                                    <td>New</td>
                                    <td>20/01/2019</td>
                                    <td/>
                                    <td/>
                                    <td/>
                                </tr>
                                <tr>
                                    <td>Metformin 500mg tablet</td>
                                    <td>Sandoz</td>
                                    <td>Take one tablet twice a day</td>
                                    <td>Reduce blood sugar</td>
                                    <td>Amended</td>
                                    <td/>
                                    <td/>
                                    <td/>
                                    <td>White and round with 227 imprinted</td>
                                </tr>
                                <tr>
                                    <td>Multi-vitamins</td>
                                    <td/>
                                    <td>Take one tablet daily</td>
                                    <td/>
                                    <td>Unchanged</td>
                                    <td/>
                                    <td/>
                                    <td/>
                                    <td/>
                                </tr>
                                <tr>
                                    <td>Paracetamol 665 mg tablet</td>
                                    <td>Panadol Osteo</td>
                                    <td>Take two tablets every 6 to 8 hours when required</td>
                                    <td>Osteoarthritis, pain relief</td>
                                    <td>Unchanged</td>
                                    <td/>
                                    <td>No more than 6 tablets in 24 hours</td>
                                    <td/>
                                    <td/>
                                </tr>
                            </tbody>
                        </table>
                        <table>
                            <caption>Ceased medicines</caption>
                            <thead>
                                <tr>
                                    <th>Medicine</th>
                                    <th>Reason for ceasing medicine</th>
                                    <th>Ceased date</th>
                                </tr>
                            </thead>
                            <tbody>
                                <tr>
                                    <td/>
                                    <td>Paracetamol 500mg tablet</td>
                                    <td>Stopped; duplicated medicine</td>
                                    <td>Dec 2018</td>
                                </tr>
                                <tr>
                                    <td>Ibuprofen</td>
                                    <td>Allergic Reaction</td>
                                    <td/>
                                </tr>
                            </tbody>
                        </table>
                        <p>Packed medicines: No</p>
                        <p>Please review this list with your pharmacist on or soon after 02/Apr/2019. Community pharmacy medicine review</p>
                    </div>
        </text>
        <extension url="http://hl7.org.au/fhir/StructureDefinition/author-role">
          <valueReference>
          <!--  reference to Bundle entry of PractitionerRole resource  -->
            <reference value="urn:uuid:eebd7c94-e124-4c2b-95dc-a6aebbe7bb4d"/>
          </valueReference>
        </extension>
        <status value="current"/>
        <mode value="snapshot"/>
        <code>
          <coding>
            <system value="http://loinc.org"/>
            <code value="10160-0"/>
            <display value="History of Medication use Narrative"/>
          </coding>
        </code>
        <subject>
        <!--  reference to Bundle entry of Patient resource  -->
          <reference value="urn:uuid:43acc1fd-9f9d-4f2f-8649-c290ac7ff847"/>
        </subject>
        <encounter>
        <!--  reference to Bundle entry of Encounter resource  -->
          <reference value="urn:uuid:038f9aaa-6c3d-4681-b9de-455de06a86d3"/>
        </encounter>
        <date value="2018-12-11T13:30:00+10:00"/>
        <source>
        <!--  reference to Bundle entry of Practitioner resource  -->
          <reference value="urn:uuid:6312677b-2e4a-4841-a986-915905e01931"/>
        </source>
        <note>
          <text value="Packed medicines: No; Please review this list with your pharmacist on or soon                         after 02/Apr/2019."/>
        </note>
        <entry>
          <flag>
            <coding>
              <system value="http://hl7.org.au/fhir/CodeSystem/medicine-item-change"/>
              <code value="nochange"/>
              <display value="Unchanged"/>
            </coding>
          </flag>
          <item>
          <!--  reference to Bundle entry of MedicationStatement resource  -->
            <reference value="urn:uuid:32def593-e104-4cee-b8f5-d1f923efd94b"/>
          </item>
        </entry>
        <entry>
          <extension url="http://hl7.org.au/fhir/StructureDefinition/change-description">
            <valueString value="Chest infection"/>
          </extension>
          <flag>
            <coding>
              <system value="http://hl7.org.au/fhir/CodeSystem/medicine-item-change"/>
              <code value="new"/>
              <display value="New"/>
            </coding>
          </flag>
          <item>
          <!--  reference to Bundle entry of MedicationStatement resource  -->
            <reference value="urn:uuid:f02c54ad-3562-4f7b-8956-de16769a2a88"/>
          </item>
        </entry>
        <entry>
          <extension url="http://hl7.org.au/fhir/StructureDefinition/change-description">
            <valueString value="Dose increased from 250mg to 500mg"/>
          </extension>
          <flag>
            <coding>
              <system value="http://hl7.org.au/fhir/CodeSystem/medicine-item-change"/>
              <code value="amended"/>
              <display value="Amended"/>
            </coding>
          </flag>
          <item>
          <!--  reference to Bundle entry of MedicationStatement resource  -->
            <reference value="urn:uuid:f27faa7d-0433-484a-94ab-5a3f966bd7b1"/>
          </item>
        </entry>
        <entry>
          <flag>
            <coding>
              <system value="http://hl7.org.au/fhir/CodeSystem/medicine-item-change"/>
              <code value="nochange"/>
              <display value="Unchanged"/>
            </coding>
          </flag>
          <item>
          <!--  reference to Bundle entry of MedicationStatement resource  -->
            <reference value="urn:uuid:006679bd-44a9-49df-82ba-a41db0cd6298"/>
          </item>
        </entry>
        <entry>
          <flag>
            <coding>
              <system value="http://hl7.org.au/fhir/CodeSystem/medicine-item-change"/>
              <code value="nochange"/>
              <display value="Unchanged"/>
            </coding>
          </flag>
          <item>
          <!--  reference to Bundle entry of MedicationStatement resource  -->
            <reference value="urn:uuid:d14a5c15-87c9-4cf8-9047-657189898273"/>
          </item>
        </entry>
        <entry>
          <extension url="http://hl7.org.au/fhir/StructureDefinition/change-description">
            <valueString value="Duplicated medicine"/>
          </extension>
          <flag>
            <coding>
              <system value="http://hl7.org.au/fhir/CodeSystem/medicine-item-change"/>
              <code value="ceased"/>
              <display value="Ceased"/>
            </coding>
          </flag>
          <item>
          <!--  reference to Bundle entry of MedicationStatement resource  -->
            <reference value="urn:uuid:17affe2a-6496-437d-8d1a-22baae41a5ae"/>
          </item>
        </entry>
        <entry>
          <extension url="http://hl7.org.au/fhir/StructureDefinition/change-description">
            <valueString value="Allergic reaction"/>
          </extension>
          <flag>
            <coding>
              <system value="http://hl7.org.au/fhir/CodeSystem/medicine-item-change"/>
              <code value="ceased"/>
            </coding>
          </flag>
          <item>
          <!--  reference to Bundle entry of MedicationStatement resource  -->
            <reference value="urn:uuid:3f99bc18-7edf-4e2a-9eae-86629b56d06e"/>
          </item>
        </entry>
      </List>
    </resource>
  </entry>
  <entry>
    <fullUrl value="urn:uuid:32def593-e104-4cee-b8f5-d1f923efd94b"/>
    <resource>
      <MedicationStatement>
        <id value="32def593-e104-4cee-b8f5-d1f923efd94b"/>
        <text>
          <status value="generated"/><div xmlns="http://www.w3.org/1999/xhtml"><p><b>Generated Narrative with Details</b></p><p><b>id</b>: 32def593-e104-4cee-b8f5-d1f923efd94b</p><p><b>status</b>: active</p><p><b>medication</b>: <a href="urn:uuid:27046ef9-d808-46d4-a028-0ef182b7a8b2">urn:uuid:27046ef9-d808-46d4-a028-0ef182b7a8b2</a></p><p><b>subject</b>: <a href="urn:uuid:43acc1fd-9f9d-4f2f-8649-c290ac7ff847">urn:uuid:43acc1fd-9f9d-4f2f-8649-c290ac7ff847</a></p><p><b>taken</b>: y</p><p><b>reasonCode</b>: Iron supplement <span style="background: LightGoldenRodYellow">(Details )</span></p><p><b>dosage</b>: </p></div>
        </text>
        <status value="active"/>
        <medicationReference>
        <!--  reference to Bundle entry of Medication resource  -->
          <reference value="urn:uuid:27046ef9-d808-46d4-a028-0ef182b7a8b2"/>
        </medicationReference>
        <subject>
        <!--  reference to Bundle entry of Patient resource  -->
          <reference value="urn:uuid:43acc1fd-9f9d-4f2f-8649-c290ac7ff847"/>
        </subject>
        <taken value="y"/>
        <reasonCode>
          <text value="Iron supplement"/>
        </reasonCode>
        <dosage>
          <text value="Take one tablet daily"/>
          <timing>
            <repeat>
              <frequency value="1"/>
              <period value="1"/>
              <periodUnit value="d"/>
            </repeat>
          </timing>
          <doseQuantity>
            <value value="1"/>
            <unit value="tablet"/>
            <system value="http://snomed.info/sct"/>
            <code value="154011000036109"/>
          </doseQuantity>
        </dosage>
      </MedicationStatement>
    </resource>
  </entry>
  <entry>
    <fullUrl value="urn:uuid:27046ef9-d808-46d4-a028-0ef182b7a8b2"/>
    <resource>
      <Medication>
        <id value="27046ef9-d808-46d4-a028-0ef182b7a8b2"/>
        <text>
          <status value="generated"/><div xmlns="http://www.w3.org/1999/xhtml"><p><b>Generated Narrative with Details</b></p><p><b>id</b>: 27046ef9-d808-46d4-a028-0ef182b7a8b2</p><p><b>code</b>: Ferro-Grad C <span style="background: LightGoldenRodYellow">(Details : {SNOMED CT code '53373011000036103' = '53373011000036103', given as 'Ferro-Grad C'})</span></p><p><b>form</b>: tablet <span style="background: LightGoldenRodYellow">(Details : {SNOMED CT code '154011000036109' = '154011000036109', given as 'tablet'})</span></p></div>
        </text>
        <code>
          <coding>
            <system value="http://snomed.info/sct"/>
            <code value="53373011000036103"/>
            <display value="Ferro-Grad C"/>
          </coding>
          <text value="Ferro-Grad C"/>
        </code>
        <form>
          <coding>
            <system value="http://snomed.info/sct"/>
            <code value="154011000036109"/>
            <display value="tablet"/>
          </coding>
        </form>
      </Medication>
    </resource>
  </entry>
  <entry>
    <fullUrl value="urn:uuid:f02c54ad-3562-4f7b-8956-de16769a2a88"/>
    <resource>
      <MedicationStatement>
        <id value="f02c54ad-3562-4f7b-8956-de16769a2a88"/>
        <text>
          <status value="generated"/><div xmlns="http://www.w3.org/1999/xhtml"><p><b>Generated Narrative with Details</b></p><p><b>id</b>: f02c54ad-3562-4f7b-8956-de16769a2a88</p><p><b>status</b>: active</p><p><b>medication</b>: <a href="urn:uuid:c09df0db-3050-4b62-bb27-7c9b743d59bd">urn:uuid:c09df0db-3050-4b62-bb27-7c9b743d59bd</a></p><p><b>effective</b>: ?? --&gt; 20/01/2019 12:00:00 AM</p><p><b>subject</b>: <a href="urn:uuid:43acc1fd-9f9d-4f2f-8649-c290ac7ff847">urn:uuid:43acc1fd-9f9d-4f2f-8649-c290ac7ff847</a></p><p><b>taken</b>: y</p><p><b>reasonCode</b>: Chest infection <span style="background: LightGoldenRodYellow">(Details )</span></p><p><b>dosage</b>: </p></div>
        </text>
        <status value="active"/>
        <medicationReference>
        <!--  reference to Bundle entry of Medication resource  -->
          <reference value="urn:uuid:c09df0db-3050-4b62-bb27-7c9b743d59bd"/>
        </medicationReference>
        <effectivePeriod>
          <end value="2019-01-20"/>
        </effectivePeriod>
        <subject>
        <!--  reference to Bundle entry of Patient resource  -->
          <reference value="urn:uuid:43acc1fd-9f9d-4f2f-8649-c290ac7ff847"/>
        </subject>
        <taken value="y"/>
        <reasonCode>
          <text value="Chest infection"/>
        </reasonCode>
        <dosage>
          <text value="Take one tablet twice a day"/>
          <timing>
            <repeat>
              <frequency value="2"/>
              <period value="1"/>
              <periodUnit value="d"/>
            </repeat>
          </timing>
          <doseQuantity>
            <value value="1"/>
            <unit value="tablet"/>
            <system value="http://snomed.info/sct"/>
            <code value="154011000036109"/>
          </doseQuantity>
        </dosage>
      </MedicationStatement>
    </resource>
  </entry>
  <entry>
    <fullUrl value="urn:uuid:c09df0db-3050-4b62-bb27-7c9b743d59bd"/>
    <resource>
      <Medication>
        <id value="c09df0db-3050-4b62-bb27-7c9b743d59bd"/>
        <text>
          <status value="generated"/><div xmlns="http://www.w3.org/1999/xhtml"><p><b>Generated Narrative with Details</b></p><p><b>id</b>: c09df0db-3050-4b62-bb27-7c9b743d59bd</p><p><b>code</b>: Amoxicillin 875 mg + clavulanic acid 125 mg tablet, Augmentin Duo Forte <span style="background: LightGoldenRodYellow">(Details : {SNOMED CT code '28152011000036108' = '28152011000036108', given as 'amoxicillin 875 mg + clavulanic acid 125 mg tablet, 10'}; {http://pbs.gov.au/code/item code '5006L' = '5006L', given as 'amoxicillin 875 mg + clavulanic acid 125 mg tablet, 10'})</span></p></div>
        </text>
        <extension url="http://hl7.org.au/fhir/StructureDefinition/medication-brand-name">
          <valueString value="Augmentin Duo Forte"/>
        </extension>
        <code>
          <coding>
            <system value="http://snomed.info/sct"/>
            <code value="28152011000036108"/>
            <display value="amoxicillin 875 mg + clavulanic acid 125 mg tablet, 10"/>
          </coding>
          <coding>
            <system value="http://pbs.gov.au/code/item"/>
            <code value="5006L"/>
            <display value="amoxicillin 875 mg + clavulanic acid 125 mg tablet, 10"/>
          </coding>
          <text value="Amoxicillin 875 mg + clavulanic acid 125 mg tablet, Augmentin Duo Forte"/>
        </code>
      </Medication>
    </resource>
  </entry>
  <entry>
    <fullUrl value="urn:uuid:f27faa7d-0433-484a-94ab-5a3f966bd7b1"/>
    <resource>
      <MedicationStatement>
        <id value="f27faa7d-0433-484a-94ab-5a3f966bd7b1"/>
        <text>
          <status value="generated"/><div xmlns="http://www.w3.org/1999/xhtml"><p><b>Generated Narrative with Details</b></p><p><b>id</b>: f27faa7d-0433-484a-94ab-5a3f966bd7b1</p><p><b>status</b>: active</p><p><b>medication</b>: <a href="urn:uuid:d45954e8-80ae-4610-b235-239e9d352799">urn:uuid:d45954e8-80ae-4610-b235-239e9d352799</a></p><p><b>subject</b>: <a href="urn:uuid:43acc1fd-9f9d-4f2f-8649-c290ac7ff847">urn:uuid:43acc1fd-9f9d-4f2f-8649-c290ac7ff847</a></p><p><b>taken</b>: y</p><p><b>reasonCode</b>: Reduce blood sugar <span style="background: LightGoldenRodYellow">(Details )</span></p><p><b>dosage</b>: </p></div>
        </text>
        <status value="active"/>
        <medicationReference>
        <!--  reference to Bundle entry of Medication resource  -->
          <reference value="urn:uuid:d45954e8-80ae-4610-b235-239e9d352799"/>
        </medicationReference>
        <subject>
        <!--  reference to Bundle entry of Patient resource  -->
          <reference value="urn:uuid:43acc1fd-9f9d-4f2f-8649-c290ac7ff847"/>
        </subject>
        <taken value="y"/>
        <reasonCode>
          <text value="Reduce blood sugar"/>
        </reasonCode>
        <dosage>
          <text value="Take one tablet twice a day"/>
          <timing>
            <repeat>
              <frequency value="2"/>
              <period value="1"/>
              <periodUnit value="d"/>
            </repeat>
          </timing>
          <doseQuantity>
            <value value="1"/>
            <unit value="tablet"/>
            <system value="http://snomed.info/sct"/>
            <code value="154011000036109"/>
          </doseQuantity>
        </dosage>
      </MedicationStatement>
    </resource>
  </entry>
  <entry>
    <fullUrl value="urn:uuid:d45954e8-80ae-4610-b235-239e9d352799"/>
    <resource>
      <Medication>
        <id value="d45954e8-80ae-4610-b235-239e9d352799"/>
        <text>
          <status value="generated"/><div xmlns="http://www.w3.org/1999/xhtml"><p><b>Generated Narrative with Details</b></p><p><b>id</b>: d45954e8-80ae-4610-b235-239e9d352799</p><p><b>code</b>: Metformin 500mg tablet, Sandoz <span style="background: LightGoldenRodYellow">(Details : {SNOMED CT code '23358011000036102' = '23358011000036102', given as 'metformin hydrochloride 500 mg tablet'}; {http://pbs.gov.au/code/item code '2430X' = '2430X', given as 'metformin hydrochloride 500 mg tablet, 100'})</span></p></div>
        </text>
        <extension url="http://hl7.org.au/fhir/StructureDefinition/medication-brand-name">
          <valueString value="Sandoz"/>
        </extension>
        <code>
          <coding>
            <system value="http://snomed.info/sct"/>
            <code value="23358011000036102"/>
            <display value="metformin hydrochloride 500 mg tablet"/>
          </coding>
          <coding>
            <system value="http://pbs.gov.au/code/item"/>
            <code value="2430X"/>
            <display value="metformin hydrochloride 500 mg tablet, 100"/>
          </coding>
          <text value="Metformin 500mg tablet, Sandoz"/>
        </code>
      </Medication>
    </resource>
  </entry>
  <entry>
    <fullUrl value="urn:uuid:006679bd-44a9-49df-82ba-a41db0cd6298"/>
    <resource>
      <MedicationStatement>
        <id value="006679bd-44a9-49df-82ba-a41db0cd6298"/>
        <text>
          <status value="generated"/><div xmlns="http://www.w3.org/1999/xhtml"><p><b>Generated Narrative with Details</b></p><p><b>id</b>: 006679bd-44a9-49df-82ba-a41db0cd6298</p><p><b>status</b>: active</p><p><b>medication</b>: <a href="urn:uuid:4418bed2-2ae9-4d0a-9acd-d70ab8284c50">urn:uuid:4418bed2-2ae9-4d0a-9acd-d70ab8284c50</a></p><p><b>subject</b>: <a href="urn:uuid:43acc1fd-9f9d-4f2f-8649-c290ac7ff847">urn:uuid:43acc1fd-9f9d-4f2f-8649-c290ac7ff847</a></p><p><b>taken</b>: y</p><p><b>dosage</b>: </p></div>
        </text>
        <status value="active"/>
        <medicationReference>
        <!--  reference to Bundle entry of Medication resource  -->
          <reference value="urn:uuid:4418bed2-2ae9-4d0a-9acd-d70ab8284c50"/>
        </medicationReference>
        <subject>
        <!--  reference to Bundle entry of Patient resource  -->
          <reference value="urn:uuid:43acc1fd-9f9d-4f2f-8649-c290ac7ff847"/>
        </subject>
        <taken value="y"/>
        <dosage>
          <text value="Take one tablet daily"/>
          <timing>
            <repeat>
              <frequency value="1"/>
              <period value="1"/>
              <periodUnit value="d"/>
            </repeat>
          </timing>
          <doseQuantity>
            <value value="1"/>
            <unit value="tablet"/>
            <system value="http://snomed.info/sct"/>
            <code value="154011000036109"/>
          </doseQuantity>
        </dosage>
      </MedicationStatement>
    </resource>
  </entry>
  <entry>
    <fullUrl value="urn:uuid:4418bed2-2ae9-4d0a-9acd-d70ab8284c50"/>
    <resource>
      <Medication>
        <id value="4418bed2-2ae9-4d0a-9acd-d70ab8284c50"/>
        <text>
          <status value="generated"/><div xmlns="http://www.w3.org/1999/xhtml"><p><b>Generated Narrative with Details</b></p><p><b>id</b>: 4418bed2-2ae9-4d0a-9acd-d70ab8284c50</p><p><b>code</b>: Multi-vitamins <span style="background: LightGoldenRodYellow">(Details )</span></p><p><b>form</b>: tablet <span style="background: LightGoldenRodYellow">(Details : {SNOMED CT code '154011000036109' = '154011000036109', given as 'tablet'})</span></p></div>
        </text>
        <code>
          <text value="Multi-vitamins"/>
        </code>
        <form>
          <coding>
            <system value="http://snomed.info/sct"/>
            <code value="154011000036109"/>
            <display value="tablet"/>
          </coding>
        </form>
      </Medication>
    </resource>
  </entry>
  <entry>
    <fullUrl value="urn:uuid:d14a5c15-87c9-4cf8-9047-657189898273"/>
    <resource>
      <MedicationStatement>
        <id value="d14a5c15-87c9-4cf8-9047-657189898273"/>
        <text>
          <status value="generated"/><div xmlns="http://www.w3.org/1999/xhtml"><p><b>Generated Narrative with Details</b></p><p><b>id</b>: d14a5c15-87c9-4cf8-9047-657189898273</p><p><b>status</b>: active</p><p><b>medication</b>: <a href="urn:uuid:9574e2d4-863b-11e9-a159-526af7764f64">urn:uuid:9574e2d4-863b-11e9-a159-526af7764f64</a></p><p><b>subject</b>: <a href="urn:uuid:43acc1fd-9f9d-4f2f-8649-c290ac7ff847">urn:uuid:43acc1fd-9f9d-4f2f-8649-c290ac7ff847</a></p><p><b>taken</b>: y</p><p><b>reasonCode</b>: Osteoarthritis, pain relief <span style="background: LightGoldenRodYellow">(Details )</span></p><p><b>dosage</b>: </p></div>
        </text>
        <status value="active"/>
        <medicationReference>
        <!--  reference to Bundle entry of Medication resource  -->
          <reference value="urn:uuid:9574e2d4-863b-11e9-a159-526af7764f64"/>
        </medicationReference>
        <subject>
        <!--  reference to Bundle entry of Patient resource  -->
          <reference value="urn:uuid:43acc1fd-9f9d-4f2f-8649-c290ac7ff847"/>
        </subject>
        <taken value="y"/>
        <reasonCode>
          <text value="Osteoarthritis, pain relief"/>
        </reasonCode>
        <dosage>
          <text value="Take two tablets every 6 to 8 hours when required; No more than 6 tablets in 24 hours"/>
          <timing>
            <repeat>
              <frequency value="1"/>
              <period value="6"/>
              <periodMax value="8"/>
              <periodUnit value="h"/>
            </repeat>
          </timing>
          <asNeededBoolean value="true"/>
          <doseQuantity>
            <value value="2"/>
            <unit value="tablets"/>
            <system value="http://snomed.info/sct"/>
            <code value="154011000036109"/>
          </doseQuantity>
          <maxDosePerPeriod>
            <numerator>
              <value value="6"/>
              <unit value="tablets"/>
              <system value="http://snomed.info/sct"/>
              <code value="154011000036109"/>
            </numerator>
            <denominator>
              <value value="24"/>
              <unit value="hours"/>
              <system value="http://unitsofmeasure.org"/>
              <code value="h"/>
            </denominator>
          </maxDosePerPeriod>
        </dosage>
      </MedicationStatement>
    </resource>
  </entry>
  <entry>
    <fullUrl value="urn:uuid:9574e2d4-863b-11e9-a159-526af7764f64"/>
    <resource>
      <Medication>
        <id value="9574e2d4-863b-11e9-a159-526af7764f64"/>
        <text>
          <status value="generated"/><div xmlns="http://www.w3.org/1999/xhtml"><p><b>Generated Narrative with Details</b></p><p><b>id</b>: 9574e2d4-863b-11e9-a159-526af7764f64</p><p><b>code</b>: Paracetamol 665mg tablet; Panadol Osteo <span style="background: LightGoldenRodYellow">(Details : {SNOMED CT code '22075011000036103' = '22075011000036103', given as 'paracetamol 665 mg modified release tablet'}; {http://pbs.gov.au/code/item code '8814X' = '8814X', given as 'paracetamol 665 mg modified release tablet, 96'})</span></p><p><b>form</b>: modified release tablet <span style="background: LightGoldenRodYellow">(Details : {SNOMED CT code '261011000036101' = '261011000036101', given as 'modified release tablet'})</span></p><h3>Ingredients</h3><table class="grid"><tr><td>-</td><td><b>Item[x]</b></td><td><b>Amount</b></td></tr><tr><td>*</td><td>Paracetamol-containing product <span style="background: LightGoldenRodYellow">(Details : {SNOMED CT code '90332006' = 'Product containing paracetamol (medicinal product)', given as 'Paracetamol-containing product'})</span></td><td>665 mg<span style="background: LightGoldenRodYellow"> (Details: UCUM code mg = 'mg')</span>/1</td></tr></table></div>
        </text>
        <extension url="http://hl7.org.au/fhir/StructureDefinition/medication-brand-name">
          <valueString value="Panadol Osteo"/>
        </extension>
        <extension url="http://hl7.org.au/fhir/StructureDefinition/medication-generic-name">
          <valueString value="Paracetamol 665mg tablet"/>
        </extension>
        <code>
          <coding>
            <system value="http://snomed.info/sct"/>
            <code value="22075011000036103"/>
            <display value="paracetamol 665 mg modified release tablet"/>
          </coding>
          <coding>
            <system value="http://pbs.gov.au/code/item"/>
            <code value="8814X"/>
            <display value="paracetamol 665 mg modified release tablet, 96"/>
          </coding>
          <text value="Paracetamol 665mg tablet; Panadol Osteo"/>
        </code>
        <form>
          <coding>
            <system value="http://snomed.info/sct"/>
            <code value="261011000036101"/>
            <display value="modified release tablet"/>
          </coding>
        </form>
        <ingredient>
          <itemCodeableConcept>
            <coding>
              <system value="http://snomed.info/sct"/>
              <code value="90332006"/>
              <display value="Paracetamol-containing product"/>
            </coding>
          </itemCodeableConcept>
          <amount>
            <numerator>
              <value value="665"/>
              <unit value="mg"/>
              <system value="http://unitsofmeasure.org"/>
              <code value="mg"/>
            </numerator>
            <denominator>
              <value value="1"/>
            </denominator>
          </amount>
        </ingredient>
      </Medication>
    </resource>
  </entry>
  <entry>
    <fullUrl value="urn:uuid:17affe2a-6496-437d-8d1a-22baae41a5ae"/>
    <resource>
      <MedicationStatement>
        <id value="17affe2a-6496-437d-8d1a-22baae41a5ae"/>
        <text>
          <status value="generated"/><div xmlns="http://www.w3.org/1999/xhtml"><p><b>Generated Narrative with Details</b></p><p><b>id</b>: 17affe2a-6496-437d-8d1a-22baae41a5ae</p><p><b>status</b>: stopped</p><p><b>medication</b>: <a href="urn:uuid:37c3cb4d-37cd-4e4e-985f-d1b8fd44fbb7">urn:uuid:37c3cb4d-37cd-4e4e-985f-d1b8fd44fbb7</a></p><p><b>effective</b>: ?? --&gt; 01/12/2018 12:00:00 AM</p><p><b>subject</b>: <a href="urn:uuid:43acc1fd-9f9d-4f2f-8649-c290ac7ff847">urn:uuid:43acc1fd-9f9d-4f2f-8649-c290ac7ff847</a></p><p><b>taken</b>: y</p><p><b>dosage</b>: </p></div>
        </text>
        <status value="stopped"/>
        <medicationReference>
        <!--  reference to Bundle entry of Medication resource  -->
          <reference value="urn:uuid:37c3cb4d-37cd-4e4e-985f-d1b8fd44fbb7"/>
        </medicationReference>
        <effectivePeriod>
          <end value="2018-12"/>
        </effectivePeriod>
        <subject>
        <!--  reference to Bundle entry of Patient resource  -->
          <reference value="urn:uuid:43acc1fd-9f9d-4f2f-8649-c290ac7ff847"/>
        </subject>
        <taken value="y"/>
        <dosage>
          <text value="Paracetamol 500mg tablet"/>
        </dosage>
      </MedicationStatement>
    </resource>
  </entry>
  <entry>
    <fullUrl value="urn:uuid:37c3cb4d-37cd-4e4e-985f-d1b8fd44fbb7"/>
    <resource>
      <Medication>
        <id value="37c3cb4d-37cd-4e4e-985f-d1b8fd44fbb7"/>
        <text>
          <status value="generated"/><div xmlns="http://www.w3.org/1999/xhtml"><p><b>Generated Narrative with Details</b></p><p><b>id</b>: 37c3cb4d-37cd-4e4e-985f-d1b8fd44fbb7</p><p><b>code</b>: Paracetamol 500 mg tablet <span style="background: LightGoldenRodYellow">(Details : {SNOMED CT code '23628011000036109' = '23628011000036109', given as 'paracetamol 500 mg tablet'})</span></p></div>
        </text>
        <code>
          <coding>
            <system value="http://snomed.info/sct"/>
            <code value="23628011000036109"/>
            <display value="paracetamol 500 mg tablet"/>
          </coding>
          <text value="Paracetamol 500 mg tablet"/>
        </code>
      </Medication>
    </resource>
  </entry>
  <entry>
    <fullUrl value="urn:uuid:3f99bc18-7edf-4e2a-9eae-86629b56d06e"/>
    <resource>
      <MedicationStatement>
        <id value="3f99bc18-7edf-4e2a-9eae-86629b56d06e"/>
        <text>
          <status value="generated"/><div xmlns="http://www.w3.org/1999/xhtml"><p><b>Generated Narrative with Details</b></p><p><b>id</b>: 3f99bc18-7edf-4e2a-9eae-86629b56d06e</p><p><b>status</b>: stopped</p><p><b>medication</b>: <a href="Medication/2a506a7c-aab0-4af3-9ea3-3f47ebe16e3d">Medication/2a506a7c-aab0-4af3-9ea3-3f47ebe16e3d</a></p><p><b>subject</b>: <a href="urn:uuid:43acc1fd-9f9d-4f2f-8649-c290ac7ff847">urn:uuid:43acc1fd-9f9d-4f2f-8649-c290ac7ff847</a></p><p><b>taken</b>: y</p><p><b>dosage</b>: </p></div>
        </text>
        <status value="stopped"/>
        <medicationReference>
        <!--  reference to Bundle entry of Medication resource  -->
          <reference value="Medication/2a506a7c-aab0-4af3-9ea3-3f47ebe16e3d"/>
        </medicationReference>
        <subject>
        <!--  reference to Bundle entry of Patient resource  -->
          <reference value="urn:uuid:43acc1fd-9f9d-4f2f-8649-c290ac7ff847"/>
        </subject>
        <taken value="y"/>
        <dosage>
          <text value="Ibuprofen"/>
        </dosage>
      </MedicationStatement>
    </resource>
  </entry>
  <entry>
    <fullUrl value="urn:uuid:2a506a7c-aab0-4af3-9ea3-3f47ebe16e3d"/>
    <resource>
      <Medication>
        <id value="2a506a7c-aab0-4af3-9ea3-3f47ebe16e3d"/>
        <text>
          <status value="generated"/><div xmlns="http://www.w3.org/1999/xhtml"><p><b>Generated Narrative with Details</b></p><p><b>id</b>: 2a506a7c-aab0-4af3-9ea3-3f47ebe16e3d</p><p><b>code</b>: Ibuprofen <span style="background: LightGoldenRodYellow">(Details : {SNOMED CT code '21885011000036105' = '21885011000036105', given as 'Ibuprofen'}; {http://pbs.gov.au/code/item code '3192B' = '3192B', given as 'IBUPROFEN'})</span></p></div>
        </text>
        <code>
          <coding>
            <system value="http://snomed.info/sct"/>
            <code value="21885011000036105"/>
            <display value="Ibuprofen"/>
          </coding>
          <coding>
            <system value="http://pbs.gov.au/code/item"/>
            <code value="3192B"/>
            <display value="IBUPROFEN"/>
          </coding>
          <text value="Ibuprofen"/>
        </code>
      </Medication>
    </resource>
  </entry>
  <entry>
    <fullUrl value="urn:uuid:7f834da9-63f5-4a66-a847-a32c366701ff"/>
    <resource>
      <AllergyIntolerance>
        <id value="7f834da9-63f5-4a66-a847-a32c366701ff"/>
        <text>
          <status value="generated"/><div xmlns="http://www.w3.org/1999/xhtml"><p><b>Generated Narrative with Details</b></p><p><b>id</b>: 7f834da9-63f5-4a66-a847-a32c366701ff</p><p><b>clinicalStatus</b>: active</p><p><b>verificationStatus</b>: unconfirmed</p><p><b>type</b>: allergy</p><p><b>code</b>: ibuprofen <span style="background: LightGoldenRodYellow">(Details : {SNOMED CT code '21885011000036105' = '21885011000036105', given as 'Ibuprofen'})</span></p><p><b>patient</b>: <a href="urn:uuid:43acc1fd-9f9d-4f2f-8649-c290ac7ff847">urn:uuid:43acc1fd-9f9d-4f2f-8649-c290ac7ff847</a></p><p><b>onset</b>: 01/10/2016</p><h3>Reactions</h3><table class="grid"><tr><td>-</td><td><b>Substance</b></td><td><b>Manifestation</b></td></tr><tr><td>*</td><td>ibuprofen <span style="background: LightGoldenRodYellow">(Details : {SNOMED CT code '21885011000036105' = '21885011000036105', given as 'Ibuprofen'})</span></td><td>Anaphylaxis <span style="background: LightGoldenRodYellow">(Details : {SNOMED CT code '39579001' = 'Generalized anaphylaxis', given as 'Anaphylaxis'})</span></td></tr></table></div>
        </text>
        <clinicalStatus value="active"/>
        <verificationStatus value="unconfirmed"/>
        <type value="allergy"/>
        <code>
          <coding>
            <system value="http://snomed.info/sct"/>
            <code value="21885011000036105"/>
            <display value="Ibuprofen"/>
          </coding>
          <text value="ibuprofen"/>
        </code>
        <patient>
        <!--  reference to Bundle entry of Patient resource  -->
          <reference value="urn:uuid:43acc1fd-9f9d-4f2f-8649-c290ac7ff847"/>
        </patient>
        <onsetDateTime value="2016-10"/>
        <reaction>
          <substance>
            <coding>
              <system value="http://snomed.info/sct"/>
              <code value="21885011000036105"/>
              <display value="Ibuprofen"/>
            </coding>
            <text value="ibuprofen"/>
          </substance>
          <manifestation>
            <coding>
              <system value="http://snomed.info/sct"/>
              <code value="39579001"/>
              <display value="Anaphylaxis"/>
            </coding>
            <text value="Anaphylaxis"/>
          </manifestation>
        </reaction>
      </AllergyIntolerance>
    </resource>
  </entry>
</Bundle>