{
  "resourceType": "Bundle",
  "id": "e32a01d0-2610-4c99-ba46-9732aa975d41",
  "meta": {
    "lastUpdated": "2018-12-11T12:30:00+10:00"
  },
  "identifier": {
    "system": "urn:ietf:rfc:3986",
    "value": "urn:uuid:b8ee2120-18dc-420b-9f6a-d114eda7315b"
  },
  "type": "document",
  "entry": [
    {
      "fullUrl": "urn:uuid:ff0gh111a-cc0f-4c3d-a4cd-a35ceafff999",
      "resource": {
        "resourceType": "Composition",
        "id": "c6f90150-465c-4c16-8e99-c4efbda29036",
        "meta": {
          "profile": [
            "http://ns.electronichealth.net.au/ci/fhir/3.0/StructureDefinition/composition-sml-prac-1"
          ]
        },
        "language": "en-AU",
        "text": {
          "status": "additional",
          "div": "<div xmlns=\"http://www.w3.org/1999/xhtml\" lang=\"en-AU\">\n                        \n                        <table style=\"border-collapse:collapse;border-spacing:0;width:100%;\">\n                            <tr>\n                                <th colspan=\"4\" style=\"border-collapse:collapse;border-spacing:0;font-family:Arial, sans-serif;padding:10px 5px;border-style:solid;border-width:1px;overflow:hidden;word-break:normal;border-color:black;font-weight:bold;font-size:20px;background-color:#333333;color:#ffffff;border:none;text-align:center;vertical-align:top\">Pharmacist Shared Medicines List</th>\n                            </tr>\n                            <tr>\n                                <td colspan=\"4\" style=\"border-collapse:collapse;border-spacing:0;font-family:Arial, sans-serif;font-size:14px;padding:10px 5px;border-style:solid;border-width:1px;overflow:hidden;word-break:normal;border-color:black;font-weight:bold;background-color:#333333;color:#ffffff;border-color:#000000;text-align:center;vertical-align:top\">11 Dec 2018</td>\n                            </tr>\n                            <tr>\n                                <td style=\"border-collapse:collapse;border-spacing:0;font-family:Arial, sans-serif;font-size:14px;padding:10px 5px;border-style:solid;border-width:1px;overflow:hidden;word-break:normal;border-color:black;background-color:#333333;color:#ffffff;border-color:#000000;text-align:center;vertical-align:top\">FRANK GOODPATIENT</td>\n                                <td style=\"border-collapse:collapse;border-spacing:0;font-family:Arial, sans-serif;font-size:14px;padding:10px 5px;border-style:solid;border-width:1px;overflow:hidden;word-break:normal;border-color:black;background-color:#333333;color:#ffffff;border-color:#000000;text-align:center;vertical-align:top\">DoB 24 Mar 1981 (37 yrs) </td>\n                                <td style=\"border-collapse:collapse;border-spacing:0;font-family:Arial, sans-serif;font-size:14px;padding:10px 5px;border-style:solid;border-width:1px;overflow:hidden;word-break:normal;border-color:black;background-color:#333333;color:#ffffff;border-color:#000000;text-align:center;vertical-align:top\">Gender MALE</td>\n                                <td style=\"border-collapse:collapse;border-spacing:0;font-family:Arial, sans-serif;font-size:14px;padding:10px 5px;border-style:solid;border-width:1px;overflow:hidden;word-break:normal;border-color:black;background-color:#333333;color:#ffffff;border-color:#000000;text-align:center;vertical-align:top\">IHI 8003608833357361 </td>\n                            </tr>\n                        </table>\n                        \n                        <h3>Tes Health Service</h3>\n                        <p><b>Pharmacist:</b> Mosenna Joanne (Pharmacist)</p>\n                        <p><b>Phone:</b> 9804 6688</p>\n                        <p><b>Email:</b> joanne.mosenna@test.teshealth.com.au</p>\n\n                        <h3 style=\"color:red\">Allergies and Adverse Reaction</h3>\n                        <table style=\"border-collapse:collapse;border-spacing:0;width:100%;\">\n                            <tr>\n                                <th style=\"border-collapse:collapse;border-spacing:0;font-family:Arial, sans-serif;font-size:14px;font-weight:normal;padding:10px 5px;border-style:solid;border-width:1px;overflow:hidden;word-break:normal;border-color:black;font-weight:bold;background-color:#9b9b9b;border-color:#000000;text-align:left;vertical-align:top\">Substance/Agent</th>\n                                <th style=\"border-collapse:collapse;border-spacing:0;font-family:Arial, sans-serif;font-size:14px;font-weight:normal;padding:10px 5px;border-style:solid;border-width:1px;overflow:hidden;word-break:normal;border-color:black;font-weight:bold;background-color:#9b9b9b;border-color:#000000;text-align:left;vertical-align:top\">Reaction Type</th>\n                                <th style=\"border-collapse:collapse;border-spacing:0;font-family:Arial, sans-serif;font-size:14px;font-weight:normal;padding:10px 5px;border-style:solid;border-width:1px;overflow:hidden;word-break:normal;border-color:black;font-weight:bold;background-color:#9b9b9b;border-color:#000000;text-align:left;vertical-align:top\">Reaction</th>\n                                <th style=\"border-collapse:collapse;border-spacing:0;font-family:Arial, sans-serif;font-size:14px;font-weight:normal;padding:10px 5px;border-style:solid;border-width:1px;overflow:hidden;word-break:normal;border-color:black;font-weight:bold;background-color:#9b9b9b;border-color:#000000;text-align:left;vertical-align:top\">Reaction Onset Date</th>\n                            </tr>\n                            <tr>\n                                <td style=\"border-collapse:collapse;border-spacing:0;font-family:Arial, sans-serif;font-size:14px;padding:10px 5px;border-style:solid;border-width:1px;overflow:hidden;word-break:normal;border-color:black;border-color:#000000;text-align:left;vertical-align:top\">ibuprofen</td>\n                                <td style=\"border-collapse:collapse;border-spacing:0;font-family:Arial, sans-serif;font-size:14px;padding:10px 5px;border-style:solid;border-width:1px;overflow:hidden;word-break:normal;border-color:black;border-color:#000000;text-align:left;vertical-align:top\">Allergic reaction</td>\n                                <td style=\"border-collapse:collapse;border-spacing:0;font-family:Arial, sans-serif;font-size:14px;padding:10px 5px;border-style:solid;border-width:1px;overflow:hidden;word-break:normal;border-color:black;border-color:#000000;text-align:left;vertical-align:top\">Anaphylaxis</td>\n                                <td style=\"border-collapse:collapse;border-spacing:0;font-family:Arial, sans-serif;font-size:14px;padding:10px 5px;border-style:solid;border-width:1px;overflow:hidden;word-break:normal;border-color:black;border-color:#000000;text-align:left;vertical-align:top\">October 2016</td>\n                            </tr>\n                        </table>\n                        \n                        <h3>Current medicines</h3>\n                        <table style=\"border-collapse:collapse;border-spacing:0;width:100%;\">\n                            <tr>\n                                <th style=\"border-collapse:collapse;border-spacing:0;font-family:Arial, sans-serif;font-size:14px;font-weight:normal;padding:10px 5px;border-style:solid;border-width:1px;overflow:hidden;word-break:normal;border-color:black;font-weight:bold;background-color:#9b9b9b;border-color:#000000;text-align:left;vertical-align:top\">Medicine</th>\n                                <th style=\"border-collapse:collapse;border-spacing:0;font-family:Arial, sans-serif;font-size:14px;font-weight:normal;padding:10px 5px;border-style:solid;border-width:1px;overflow:hidden;word-break:normal;border-color:black;font-weight:bold;background-color:#9b9b9b;border-color:#000000;text-align:left;vertical-align:top\">Brand Name</th>\n                                <th style=\"border-collapse:collapse;border-spacing:0;font-family:Arial, sans-serif;font-size:14px;font-weight:normal;padding:10px 5px;border-style:solid;border-width:1px;overflow:hidden;word-break:normal;border-color:black;font-weight:bold;background-color:#9b9b9b;border-color:#000000;text-align:left;vertical-align:top\">Direction</th>\n                                <th style=\"border-collapse:collapse;border-spacing:0;font-family:Arial, sans-serif;font-size:14px;font-weight:normal;padding:10px 5px;border-style:solid;border-width:1px;overflow:hidden;word-break:normal;border-color:black;font-weight:bold;background-color:#9b9b9b;border-color:#000000;text-align:left;vertical-align:top\">Medicine Purpose</th>\n                                <th style=\"border-collapse:collapse;border-spacing:0;font-family:Arial, sans-serif;font-size:14px;font-weight:normal;padding:10px 5px;border-style:solid;border-width:1px;overflow:hidden;word-break:normal;border-color:black;font-weight:bold;background-color:#9b9b9b;border-color:#000000;text-align:left;vertical-align:top\">Medicine Status</th>\n                                <th style=\"border-collapse:collapse;border-spacing:0;font-family:Arial, sans-serif;font-size:14px;font-weight:normal;padding:10px 5px;border-style:solid;border-width:1px;overflow:hidden;word-break:normal;border-color:black;font-weight:bold;background-color:#9b9b9b;border-color:#000000;text-align:left;vertical-align:top\">Expected End Date</th>\n                                <th style=\"border-collapse:collapse;border-spacing:0;font-family:Arial, sans-serif;font-size:14px;font-weight:normal;padding:10px 5px;border-style:solid;border-width:1px;overflow:hidden;word-break:normal;border-color:black;font-weight:bold;background-color:#9b9b9b;border-color:#000000;text-align:left;vertical-align:top\">Special Instructions</th>\n                                <th style=\"border-collapse:collapse;border-spacing:0;font-family:Arial, sans-serif;font-size:14px;font-weight:normal;padding:10px 5px;border-style:solid;border-width:1px;overflow:hidden;word-break:normal;border-color:black;font-weight:bold;background-color:#9b9b9b;border-color:#000000;text-align:left;vertical-align:top\">Medicine Image</th>\n                                <th style=\"border-collapse:collapse;border-spacing:0;font-family:Arial, sans-serif;font-size:14px;font-weight:normal;padding:10px 5px;border-style:solid;border-width:1px;overflow:hidden;word-break:normal;border-color:black;font-weight:bold;background-color:#9b9b9b;border-color:#000000;text-align:left;vertical-align:top\">Physical Description</th>\n                            </tr>\n                            <tr>\n                                <td style=\"border-collapse:collapse;border-spacing:0;font-family:Arial, sans-serif;font-size:14px;padding:10px 5px;border-style:solid;border-width:1px;overflow:hidden;word-break:normal;border-color:black;border-color:#000000;text-align:left;vertical-align:top\"/>\n                                <td style=\"border-collapse:collapse;border-spacing:0;font-family:Arial, sans-serif;font-size:14px;padding:10px 5px;border-style:solid;border-width:1px;overflow:hidden;word-break:normal;border-color:black;border-color:#000000;text-align:left;vertical-align:top\">Ferro-Grad C</td>\n                                <td style=\"border-collapse:collapse;border-spacing:0;font-family:Arial, sans-serif;font-size:14px;padding:10px 5px;border-style:solid;border-width:1px;overflow:hidden;word-break:normal;border-color:black;border-color:#000000;text-align:left;vertical-align:top\">Take one tablet daily</td>\n                                <td style=\"border-collapse:collapse;border-spacing:0;font-family:Arial, sans-serif;font-size:14px;padding:10px 5px;border-style:solid;border-width:1px;overflow:hidden;word-break:normal;border-color:black;border-color:#000000;text-align:left;vertical-align:top\">Iron supplement</td>\n                                <td style=\"border-collapse:collapse;border-spacing:0;font-family:Arial, sans-serif;font-size:14px;padding:10px 5px;border-style:solid;border-width:1px;overflow:hidden;word-break:normal;border-color:black;border-color:#000000;text-align:left;vertical-align:top\">Unchanged</td>\n                                <td style=\"border-collapse:collapse;border-spacing:0;font-family:Arial, sans-serif;font-size:14px;padding:10px 5px;border-style:solid;border-width:1px;overflow:hidden;word-break:normal;border-color:black;border-color:#000000;text-align:left;vertical-align:top\"/>\n                                <td style=\"border-collapse:collapse;border-spacing:0;font-family:Arial, sans-serif;font-size:14px;padding:10px 5px;border-style:solid;border-width:1px;overflow:hidden;word-break:normal;border-color:black;border-color:#000000;text-align:left;vertical-align:top\"/>\n                                <td style=\"border-collapse:collapse;border-spacing:0;font-family:Arial, sans-serif;font-size:14px;padding:10px 5px;border-style:solid;border-width:1px;overflow:hidden;word-break:normal;border-color:black;border-color:#000000;text-align:left;vertical-align:top\"/>\n                                <td style=\"border-collapse:collapse;border-spacing:0;font-family:Arial, sans-serif;font-size:14px;padding:10px 5px;border-style:solid;border-width:1px;overflow:hidden;word-break:normal;border-color:black;border-color:#000000;text-align:left;vertical-align:top\"/>\n                            </tr>\n                            <tr>\n                                <td style=\"border-collapse:collapse;border-spacing:0;font-family:Arial, sans-serif;font-size:14px;padding:10px 5px;border-style:solid;border-width:1px;overflow:hidden;word-break:normal;border-color:black;border-color:#000000;text-align:left;vertical-align:top\">Amoxicillin 875 mg + clavulanic acid 125 mg tablet</td>\n                                <td style=\"border-collapse:collapse;border-spacing:0;font-family:Arial, sans-serif;font-size:14px;padding:10px 5px;border-style:solid;border-width:1px;overflow:hidden;word-break:normal;border-color:black;border-color:#000000;text-align:left;vertical-align:top\">Augmentin Duo Forte</td>\n                                <td style=\"border-collapse:collapse;border-spacing:0;font-family:Arial, sans-serif;font-size:14px;padding:10px 5px;border-style:solid;border-width:1px;overflow:hidden;word-break:normal;border-color:black;border-color:#000000;text-align:left;vertical-align:top\">Take one tablet twice a day</td>\n                                <td style=\"border-collapse:collapse;border-spacing:0;font-family:Arial, sans-serif;font-size:14px;padding:10px 5px;border-style:solid;border-width:1px;overflow:hidden;word-break:normal;border-color:black;border-color:#000000;text-align:left;vertical-align:top\">Infection</td>\n                                <td style=\"border-collapse:collapse;border-spacing:0;font-family:Arial, sans-serif;font-size:14px;padding:10px 5px;border-style:solid;border-width:1px;overflow:hidden;word-break:normal;border-color:black;border-color:#000000;text-align:left;vertical-align:top\">New</td>\n                                <td style=\"border-collapse:collapse;border-spacing:0;font-family:Arial, sans-serif;font-size:14px;padding:10px 5px;border-style:solid;border-width:1px;overflow:hidden;word-break:normal;border-color:black;border-color:#000000;text-align:left;vertical-align:top\">20/01/2019</td>\n                                <td style=\"border-collapse:collapse;border-spacing:0;font-family:Arial, sans-serif;font-size:14px;padding:10px 5px;border-style:solid;border-width:1px;overflow:hidden;word-break:normal;border-color:black;border-color:#000000;text-align:left;vertical-align:top\"/>\n                                <td style=\"border-collapse:collapse;border-spacing:0;font-family:Arial, sans-serif;font-size:14px;padding:10px 5px;border-style:solid;border-width:1px;overflow:hidden;word-break:normal;border-color:black;border-color:#000000;text-align:left;vertical-align:top\"/>\n                                <td style=\"border-collapse:collapse;border-spacing:0;font-family:Arial, sans-serif;font-size:14px;padding:10px 5px;border-style:solid;border-width:1px;overflow:hidden;word-break:normal;border-color:black;border-color:#000000;text-align:left;vertical-align:top\"/>\n                            </tr>\n                            <tr>\n                                <td style=\"border-collapse:collapse;border-spacing:0;font-family:Arial, sans-serif;font-size:14px;padding:10px 5px;border-style:solid;border-width:1px;overflow:hidden;word-break:normal;border-color:black;border-color:#000000;text-align:left;vertical-align:top\">Metformin 500mg tablet</td>\n                                <td style=\"border-collapse:collapse;border-spacing:0;font-family:Arial, sans-serif;font-size:14px;padding:10px 5px;border-style:solid;border-width:1px;overflow:hidden;word-break:normal;border-color:black;border-color:#000000;text-align:left;vertical-align:top\">Sandoz</td>\n                                <td style=\"border-collapse:collapse;border-spacing:0;font-family:Arial, sans-serif;font-size:14px;padding:10px 5px;border-style:solid;border-width:1px;overflow:hidden;word-break:normal;border-color:black;border-color:#000000;text-align:left;vertical-align:top\">Take one tablet twice a day</td>\n                                <td style=\"border-collapse:collapse;border-spacing:0;font-family:Arial, sans-serif;font-size:14px;padding:10px 5px;border-style:solid;border-width:1px;overflow:hidden;word-break:normal;border-color:black;border-color:#000000;text-align:left;vertical-align:top\">Reduce blood sugar</td>\n                                <td style=\"border-collapse:collapse;border-spacing:0;font-family:Arial, sans-serif;font-size:14px;padding:10px 5px;border-style:solid;border-width:1px;overflow:hidden;word-break:normal;border-color:black;border-color:#000000;text-align:left;vertical-align:top\"/>\n                                <td style=\"border-collapse:collapse;border-spacing:0;font-family:Arial, sans-serif;font-size:14px;padding:10px 5px;border-style:solid;border-width:1px;overflow:hidden;word-break:normal;border-color:black;border-color:#000000;text-align:left;vertical-align:top\"/>\n                                <td style=\"border-collapse:collapse;border-spacing:0;font-family:Arial, sans-serif;font-size:14px;padding:10px 5px;border-style:solid;border-width:1px;overflow:hidden;word-break:normal;border-color:black;border-color:#000000;text-align:left;vertical-align:top\"/>\n                                <td style=\"border-collapse:collapse;border-spacing:0;font-family:Arial, sans-serif;font-size:14px;padding:10px 5px;border-style:solid;border-width:1px;overflow:hidden;word-break:normal;border-color:black;border-color:#000000;text-align:left;vertical-align:top\">\n                                      <!-- <img alt=\"image\"\n                                        src=\"data:image/jpeg;base64,\"\n                                    /> -->\n                                    <img src=\"#ff67c94c-d6bb-491a-99a6-8dfa82000173\" alt=\"image\"/>\n                                </td>\n                                <td style=\"border-collapse:collapse;border-spacing:0;font-family:Arial, sans-serif;font-size:14px;padding:10px 5px;border-style:solid;border-width:1px;overflow:hidden;word-break:normal;border-color:black;border-color:#000000;text-align:left;vertical-align:top\">White and round with 227 imprint</td>\n                            </tr>\n                            <tr>\n                                <td style=\"border-collapse:collapse;border-spacing:0;font-family:Arial, sans-serif;font-size:14px;padding:10px 5px;border-style:solid;border-width:1px;overflow:hidden;word-break:normal;border-color:black;border-color:#000000;text-align:left;vertical-align:top\">Multi-vitamins</td>\n                                <td style=\"border-collapse:collapse;border-spacing:0;font-family:Arial, sans-serif;font-size:14px;padding:10px 5px;border-style:solid;border-width:1px;overflow:hidden;word-break:normal;border-color:black;border-color:#000000;text-align:left;vertical-align:top\"/>\n                                <td style=\"border-collapse:collapse;border-spacing:0;font-family:Arial, sans-serif;font-size:14px;padding:10px 5px;border-style:solid;border-width:1px;overflow:hidden;word-break:normal;border-color:black;border-color:#000000;text-align:left;vertical-align:top\">Take one tablet daily</td>\n                                <td style=\"border-collapse:collapse;border-spacing:0;font-family:Arial, sans-serif;font-size:14px;padding:10px 5px;border-style:solid;border-width:1px;overflow:hidden;word-break:normal;border-color:black;border-color:#000000;text-align:left;vertical-align:top\"/>\n                                <td style=\"border-collapse:collapse;border-spacing:0;font-family:Arial, sans-serif;font-size:14px;padding:10px 5px;border-style:solid;border-width:1px;overflow:hidden;word-break:normal;border-color:black;border-color:#000000;text-align:left;vertical-align:top\"/>\n                                <td style=\"border-collapse:collapse;border-spacing:0;font-family:Arial, sans-serif;font-size:14px;padding:10px 5px;border-style:solid;border-width:1px;overflow:hidden;word-break:normal;border-color:black;border-color:#000000;text-align:left;vertical-align:top\"/>\n                                <td style=\"border-collapse:collapse;border-spacing:0;font-family:Arial, sans-serif;font-size:14px;padding:10px 5px;border-style:solid;border-width:1px;overflow:hidden;word-break:normal;border-color:black;border-color:#000000;text-align:left;vertical-align:top\"/>\n                                <td style=\"border-collapse:collapse;border-spacing:0;font-family:Arial, sans-serif;font-size:14px;padding:10px 5px;border-style:solid;border-width:1px;overflow:hidden;word-break:normal;border-color:black;border-color:#000000;text-align:left;vertical-align:top\"/>\n                                <td style=\"border-collapse:collapse;border-spacing:0;font-family:Arial, sans-serif;font-size:14px;padding:10px 5px;border-style:solid;border-width:1px;overflow:hidden;word-break:normal;border-color:black;border-color:#000000;text-align:left;vertical-align:top\"/>\n                            </tr>\n                            <tr>\n                                <td style=\"border-collapse:collapse;border-spacing:0;font-family:Arial, sans-serif;font-size:14px;padding:10px 5px;border-style:solid;border-width:1px;overflow:hidden;word-break:normal;border-color:black;border-color:#000000;text-align:left;vertical-align:top\">Paracetamol 665mg caplet</td>\n                                <td style=\"border-collapse:collapse;border-spacing:0;font-family:Arial, sans-serif;font-size:14px;padding:10px 5px;border-style:solid;border-width:1px;overflow:hidden;word-break:normal;border-color:black;border-color:#000000;text-align:left;vertical-align:top\">Panadol Osteo</td>\n                                <td style=\"border-collapse:collapse;border-spacing:0;font-family:Arial, sans-serif;font-size:14px;padding:10px 5px;border-style:solid;border-width:1px;overflow:hidden;word-break:normal;border-color:black;border-color:#000000;text-align:left;vertical-align:top\">Take two caplets every 6 to 8 hours when required</td>\n                                <td style=\"border-collapse:collapse;border-spacing:0;font-family:Arial, sans-serif;font-size:14px;padding:10px 5px;border-style:solid;border-width:1px;overflow:hidden;word-break:normal;border-color:black;border-color:#000000;text-align:left;vertical-align:top\">Osteoarthritis, pain relief</td>\n                                <td style=\"border-collapse:collapse;border-spacing:0;font-family:Arial, sans-serif;font-size:14px;padding:10px 5px;border-style:solid;border-width:1px;overflow:hidden;word-break:normal;border-color:black;border-color:#000000;text-align:left;vertical-align:top\"/>\n                                <td style=\"border-collapse:collapse;border-spacing:0;font-family:Arial, sans-serif;font-size:14px;padding:10px 5px;border-style:solid;border-width:1px;overflow:hidden;word-break:normal;border-color:black;border-color:#000000;text-align:left;vertical-align:top\"/>\n                                <td style=\"border-collapse:collapse;border-spacing:0;font-family:Arial, sans-serif;font-size:14px;padding:10px 5px;border-style:solid;border-width:1px;overflow:hidden;word-break:normal;border-color:black;border-color:#000000;text-align:left;vertical-align:top\">No more than 6 caplets in 24 hours</td>\n                                <td style=\"border-collapse:collapse;border-spacing:0;font-family:Arial, sans-serif;font-size:14px;padding:10px 5px;border-style:solid;border-width:1px;overflow:hidden;word-break:normal;border-color:black;border-color:#000000;text-align:left;vertical-align:top\"/>\n                                <td style=\"border-collapse:collapse;border-spacing:0;font-family:Arial, sans-serif;font-size:14px;padding:10px 5px;border-style:solid;border-width:1px;overflow:hidden;word-break:normal;border-color:black;border-color:#000000;text-align:left;vertical-align:top\"/>\n                            </tr>\n                            <tr>\n                                <td style=\"border-collapse:collapse;border-spacing:0;font-family:Arial, sans-serif;font-size:14px;padding:10px 5px;border-style:solid;border-width:1px;overflow:hidden;word-break:normal;border-color:black;border-color:#000000;text-align:left;vertical-align:top\">Warfarin sodium 5 mg tablet</td>\n                                <td style=\"border-collapse:collapse;border-spacing:0;font-family:Arial, sans-serif;font-size:14px;padding:10px 5px;border-style:solid;border-width:1px;overflow:hidden;word-break:normal;border-color:black;border-color:#000000;text-align:left;vertical-align:top\">Coumadin</td>\n                                <td style=\"border-collapse:collapse;border-spacing:0;font-family:Arial, sans-serif;font-size:14px;padding:10px 5px;border-style:solid;border-width:1px;overflow:hidden;word-break:normal;border-color:black;border-color:#000000;text-align:left;vertical-align:top\">Take as directed by your doctor at night</td>\n                                <td style=\"border-collapse:collapse;border-spacing:0;font-family:Arial, sans-serif;font-size:14px;padding:10px 5px;border-style:solid;border-width:1px;overflow:hidden;word-break:normal;border-color:black;border-color:#000000;text-align:left;vertical-align:top\">Blood thining</td>\n                                <td style=\"border-collapse:collapse;border-spacing:0;font-family:Arial, sans-serif;font-size:14px;padding:10px 5px;border-style:solid;border-width:1px;overflow:hidden;word-break:normal;border-color:black;border-color:#000000;text-align:left;vertical-align:top\">Witheld</td>\n                                <td style=\"border-collapse:collapse;border-spacing:0;font-family:Arial, sans-serif;font-size:14px;padding:10px 5px;border-style:solid;border-width:1px;overflow:hidden;word-break:normal;border-color:black;border-color:#000000;text-align:left;vertical-align:top\"/>\n                                <td style=\"border-collapse:collapse;border-spacing:0;font-family:Arial, sans-serif;font-size:14px;padding:10px 5px;border-style:solid;border-width:1px;overflow:hidden;word-break:normal;border-color:black;border-color:#000000;text-align:left;vertical-align:top\"/>\n                                <td style=\"border-collapse:collapse;border-spacing:0;font-family:Arial, sans-serif;font-size:14px;padding:10px 5px;border-style:solid;border-width:1px;overflow:hidden;word-break:normal;border-color:black;border-color:#000000;text-align:left;vertical-align:top\"/>\n                                <td style=\"border-collapse:collapse;border-spacing:0;font-family:Arial, sans-serif;font-size:14px;padding:10px 5px;border-style:solid;border-width:1px;overflow:hidden;word-break:normal;border-color:black;border-color:#000000;text-align:left;vertical-align:top\">Peach.Round.Imprint.</td>\n                            </tr>\n                        </table>\n\n                        <h3>Ceased medicines</h3>\n                        <table style=\"border-collapse:collapse;border-spacing:0;width:100%;\">\n                            <tr>\n                                <th style=\"border-collapse:collapse;border-spacing:0;font-family:Arial, sans-serif;font-size:14px;font-weight:normal;padding:10px 5px;border-style:solid;border-width:1px;overflow:hidden;word-break:normal;border-color:black;font-weight:bold;background-color:#9b9b9b;border-color:#000000;text-align:left;vertical-align:top\">Ceased medicine</th>\n                                <th style=\"border-collapse:collapse;border-spacing:0;font-family:Arial, sans-serif;font-size:14px;font-weight:normal;padding:10px 5px;border-style:solid;border-width:1px;overflow:hidden;word-break:normal;border-color:black;font-weight:bold;background-color:#9b9b9b;border-color:#000000;text-align:left;vertical-align:top\">Reason for ceasing medication</th>\n                                <th style=\"border-collapse:collapse;border-spacing:0;font-family:Arial, sans-serif;font-size:14px;font-weight:normal;padding:10px 5px;border-style:solid;border-width:1px;overflow:hidden;word-break:normal;border-color:black;font-weight:bold;background-color:#9b9b9b;border-color:#000000;text-align:left;vertical-align:top\">Ceased date</th>\n                            </tr>\n                            <tr>\n                                <td style=\"border-collapse:collapse;border-spacing:0;font-family:Arial, sans-serif;font-size:14px;padding:10px 5px;border-style:solid;border-width:1px;overflow:hidden;word-break:normal;border-color:black;border-color:#000000;text-align:left;vertical-align:top\">Paracetamol 500 mg tablet</td>\n                                <td style=\"border-collapse:collapse;border-spacing:0;font-family:Arial, sans-serif;font-size:14px;padding:10px 5px;border-style:solid;border-width:1px;overflow:hidden;word-break:normal;border-color:black;border-color:#000000;text-align:left;vertical-align:top\">Duplicated medicine</td>\n                                <td style=\"border-collapse:collapse;border-spacing:0;font-family:Arial, sans-serif;font-size:14px;padding:10px 5px;border-style:solid;border-width:1px;overflow:hidden;word-break:normal;border-color:black;border-color:#000000;text-align:left;vertical-align:top\">Dec 2018</td>\n                            </tr>\n                            <tr>\n                                <td style=\"border-collapse:collapse;border-spacing:0;font-family:Arial, sans-serif;font-size:14px;padding:10px 5px;border-style:solid;border-width:1px;overflow:hidden;word-break:normal;border-color:black;border-color:#000000;text-align:left;vertical-align:top\">Ibuprofen</td>\n                                <td style=\"border-collapse:collapse;border-spacing:0;font-family:Arial, sans-serif;font-size:14px;padding:10px 5px;border-style:solid;border-width:1px;overflow:hidden;word-break:normal;border-color:black;border-color:#000000;text-align:left;vertical-align:top\">Allergic reaction</td>\n                                <td style=\"border-collapse:collapse;border-spacing:0;font-family:Arial, sans-serif;font-size:14px;padding:10px 5px;border-style:solid;border-width:1px;overflow:hidden;word-break:normal;border-color:black;border-color:#000000;text-align:left;vertical-align:top\"/>\n                            </tr>\n                        </table>\n                        \n                        <p>Packed medicines: No</p>\n                        <p>Additional comments: Please review this list with your pharmacist on or soon after 02/April/2019.</p>\n                        <p>Healthcare setting:Community pharmacy</p>\n                    </div>"
        },
        "contained": [
          {
            "resourceType": "Binary",
            "id": "ff67c94c-d6bb-491a-99a6-8dfa82000173",
            "contentType": "image/gif",
            "content": ""
          }
        ],
        "extension": [
          {
            "url": "http://hl7.org.au/fhir/StructureDefinition/composition-author-role",
            "valueReference": {
              "reference": "urn:uuid:eebd7c94-e124-4c2b-95dc-a6aebbe7bb4d"
            }
          }
        ],
        "status": "final",
        "type": {
          "coding": [
            {
              "system": "http://loinc.org",
              "code": "56445-0",
              "display": "Medication summary"
            }
          ]
        },
        "subject": {
          "reference": "urn:uuid:43acc1fd-9f9d-4f2f-8649-c290ac7ff847"
        },
        "encounter": {
          "reference": "urn:uuid:038f9aaa-6c3d-4681-b9de-455de06a86d3"
        },
        "date": "2018-12-11T12:30:00+10:00",
        "author": [
          {
            "reference": "urn:uuid:6312677b-2e4a-4841-a986-915905e01931"
          }
        ],
        "title": "Pharmacist Shared Medicines List",
        "attester": [
          {
            "mode": [
              "legal"
            ],
            "time": "2018-12-11T12:30:00+10:00",
            "party": {
              "reference": "urn:uuid:6312677b-2e4a-4841-a986-915905e01931"
            }
          }
        ],
        "custodian": {
          "reference": "urn:uuid:24391534-dbe5-44f0-af74-07ca016e7446"
        },
        "section": [
          {
            "title": "Medications",
            "code": {
              "coding": [
                {
                  "system": "http://loinc.org",
                  "code": "10160-0",
                  "display": "History of Medication use Narrative"
                }
              ]
            },
            "text": {
              "status": "additional",
              "div": "<div xmlns=\"http://www.w3.org/1999/xhtml\">\n                            <table>\n                                <caption>Current medicines</caption>\n                                <thead>\n                                    <tr>\n                                        <th>Medicine</th>\n                                        <th>Brand name</th>\n                                        <th>Direction</th>\n                                        <th>Medicine purpose</th>\n                                        <th>Medicine status</th>\n                                        <th>Expected end date</th>\n                                        <th>Special instructions</th>\n                                        <th>Medicine Image</th>\n                                        <th>Physical Description</th>\n                                    </tr>\n                                </thead>\n                                <tbody>\n                                    <tr id=\"medicationstatement-ferro-grad-c\">\n                                        <td/>\n                                        <td>Ferro-Grad C</td>\n                                        <td>Take one tablet daily</td>\n                                        <td>Iron Supplement</td>\n                                        <td>Unchanged</td>\n                                        <td/>\n                                        <td/>\n                                        <td/>\n                                        <td/>\n                                    </tr>\n                                    <tr id=\"medicationstatement-amoxicillin-875mg\">\n                                        <td>Amoxicillin 875 mg + clavunalic acid 125 mg tablet</td>\n                                        <td>Augmentin Duo Forte</td>\n                                        <td>Take one tablet twice a day</td>\n                                        <td>Infection</td>\n                                        <td>New</td>\n                                        <td>20/01/2019</td>\n                                        <td/>\n                                        <td/>\n                                        <td/>\n                                    </tr>\n                                    <tr id=\"medicationstatement-metformin-500mg\">\n                                        <td>Metformin 500mg tablet</td>\n                                        <td>Sandoz</td>\n                                        <td>Take one tablet twice a day</td>\n                                        <td>Reduce blood sugar</td>\n                                        <td>Dose changed</td>\n                                        <td/>\n                                        <td/>\n                                        <td>insert link</td>\n                                        <td>White and round with 227 imprinted</td>\n                                    </tr>\n                                    <tr id=\"medicationstatement-multi-vitamins\">\n                                        <td>Multi-vitamins</td>\n                                        <td/>\n                                        <td>Take one tablet daily</td>\n                                        <td/>\n                                        <td/>\n                                        <td/>\n                                        <td/>\n                                        <td/>\n                                        <td/>\n                                    </tr>\n                                    <tr id=\"medicationstatement-paracetamol-665mg\">\n                                        <td>Paracetamol 665 mg caplet</td>\n                                        <td>Panadol Osteo</td>\n                                        <td>Take two caplets every 6 to 8 hours when required</td>\n                                        <td>Osteoarthritis, pain relief</td>\n                                        <td/>\n                                        <td/>\n                                        <td>No more than 6 caplets in 24 hours</td>\n                                        <td/>\n                                        <td/>\n                                    </tr>\n                                    <tr id=\"medicationstatement-warfarin\">\n                                        <td>Warfarin sodium 5 mg tablet</td>\n                                        <td>Coumadin</td>\n                                        <td>Take as directed by your doctor at night</td>\n                                        <td>Blood thinning</td>\n                                        <td>Withheld</td>\n                                        <td/>\n                                        <td/>\n                                        <td/>\n                                        <td>Peach.Round.Imprinted.</td>\n                                    </tr>\n                                </tbody>\n                            </table>\n                        </div>"
            },
            "entry": [
              {
                "reference": "urn:uuid:e3677c50-8940-4793-bc43-72a33e5b6460"
              }
            ]
          },
          {
            "title": "Allergies",
            "code": {
              "coding": [
                {
                  "system": "http://loinc.org",
                  "code": "48765-2",
                  "display": "Allergies &or adverse reactions"
                }
              ]
            },
            "text": {
              "status": "additional",
              "div": "<div xmlns=\"http://www.w3.org/1999/xhtml\">\n                            <table>\n                                <caption>Allergies and Adverse Reactions</caption>\n                                <thead>\n                                    <tr>\n                                        <th>Substance/Agent</th>\n                                        <th>Reaction Type</th>\n                                        <th>Reaction</th>\n                                        <th>Reaction Onset Date</th>\n                                    </tr>\n                                </thead>\n                                <tbody>\n                                    <tr>\n                                        <td>ibuprofen</td>\n                                        <td>Allergic reaction</td>\n                                        <td>Anaphylaxis</td>\n                                        <td>October 2016</td>\n                                    </tr>\n                                </tbody>\n                            </table>\n                        </div>"
            },
            "entry": [
              {
                "reference": "urn:uuid:7f834da9-63f5-4a66-a847-a32c366701ff"
              }
            ]
          }
        ]
      }
    },
    {
      "fullUrl": "urn:uuid:43acc1fd-9f9d-4f2f-8649-c290ac7ff847",
      "resource": {
        "resourceType": "Patient",
        "id": "43acc1fd-9f9d-4f2f-8649-c290ac7ff847",
        "meta": {
          "profile": [
            "http://ns.electronichealth.net.au/ci/fhir/3.0/StructureDefinition/patient-ident-1"
          ]
        },
        "text": {
          "status": "generated",
          "div": "<div xmlns=\"http://www.w3.org/1999/xhtml\"><p><b>Generated Narrative with Details</b></p><p><b>id</b>: 43acc1fd-9f9d-4f2f-8649-c290ac7ff847</p><p><b>meta</b>: </p><p><b>identifier</b>: National unique individual identifier = 8003608333563104</p><p><b>name</b>: Mac PRIEST </p><p><b>gender</b>: male</p><p><b>birthDate</b>: 09/03/1989</p><p><b>generalPractitioner</b>: <a href=\"urn:uuid:b738af06-18f5-48b8-a0d6-96d0e97c0634\">urn:uuid:b738af06-18f5-48b8-a0d6-96d0e97c0634</a></p></div>"
        },
        "extension": [
          {
            "url": "http://hl7.org.au/fhir/StructureDefinition/indigenous-status",
            "valueCoding": {
              "system": "https://healthterminologies.gov.au/fhir/CodeSystem/australian-indigenous-status-1",
              "code": "4",
              "display": "Neither Aboriginal nor Torres Strait Islander origin"
            }
          }
        ],
        "identifier": [
          {
            "type": {
              "coding": [
                {
                  "system": "http://hl7.org/fhir/v2/0203",
                  "code": "NI",
                  "display": "National unique individual identifier"
                }
              ]
            },
            "system": "http://ns.electronichealth.net.au/id/hi/ihi/1.0",
            "value": "8003608333563104"
          }
        ],
        "name": [
          {
            "family": "PRIEST",
            "given": [
              "Mac"
            ]
          }
        ],
        "gender": "male",
        "birthDate": "1989-03-09",
        "generalPractitioner": [
          {
            "reference": "urn:uuid:b738af06-18f5-48b8-a0d6-96d0e97c0634"
          }
        ]
      }
    },
    {
      "fullUrl": "urn:uuid:6312677b-2e4a-4841-a986-915905e01931",
      "resource": {
        "resourceType": "Practitioner",
        "id": "6312677b-2e4a-4841-a986-915905e01931",
        "meta": {
          "profile": [
            "http://ns.electronichealth.net.au/ci/fhir/3.0/StructureDefinition/practitioner-ident-1"
          ]
        },
        "text": {
          "status": "generated",
          "div": "<div xmlns=\"http://www.w3.org/1999/xhtml\"><p><b>Generated Narrative with Details</b></p><p><b>id</b>: 6312677b-2e4a-4841-a986-915905e01931</p><p><b>meta</b>: </p><p><b>identifier</b>: HPI-I = 8003611566708354</p><p><b>name</b>: Zane Sinclair </p><p><b>telecom</b>: zsin@gmail.com(WORK)</p><h3>Qualifications</h3><table class=\"grid\"><tr><td>-</td><td><b>Code</b></td></tr><tr><td>*</td><td>Bachelor of Pharmacy <span style=\"background: LightGoldenRodYellow\">(Details )</span></td></tr></table></div>"
        },
        "identifier": [
          {
            "type": {
              "coding": [
                {
                  "system": "http://hl7.org/fhir/v2/0203",
                  "code": "NPI",
                  "display": "National provider identifier"
                }
              ],
              "text": "HPI-I"
            },
            "system": "http://ns.electronichealth.net.au/id/hi/hpii/1.0",
            "value": "8003611566708354"
          }
        ],
        "name": [
          {
            "family": "Sinclair",
            "given": [
              "Zane"
            ],
            "prefix": [
              "Mr."
            ]
          }
        ],
        "telecom": [
          {
            "system": "email",
            "value": "zsin@gmail.com",
            "use": "work"
          }
        ],
        "qualification": [
          {
            "code": {
              "text": "Bachelor of Pharmacy"
            }
          }
        ]
      }
    },
    {
      "fullUrl": "urn:uuid:eebd7c94-e124-4c2b-95dc-a6aebbe7bb4d",
      "resource": {
        "resourceType": "PractitionerRole",
        "id": "eebd7c94-e124-4c2b-95dc-a6aebbe7bb4d",
        "meta": {
          "profile": [
            "http://ns.electronichealth.net.au/ci/fhir/3.0/StructureDefinition/practitionerrole-withpractitionerident-1"
          ]
        },
        "text": {
          "status": "generated",
          "div": "<div xmlns=\"http://www.w3.org/1999/xhtml\"><p><b>Generated Narrative with Details</b></p><p><b>id</b>: eebd7c94-e124-4c2b-95dc-a6aebbe7bb4d</p><p><b>meta</b>: </p><p><b>identifier</b>: HPI-I = 8003611566708354</p><p><b>practitioner</b>: <a href=\"urn:uuid:6312677b-2e4a-4841-a986-915905e01931\">urn:uuid:6312677b-2e4a-4841-a986-915905e01931</a></p><p><b>organization</b>: <a href=\"urn:uuid:24391534-dbe5-44f0-af74-07ca016e7446\">urn:uuid:24391534-dbe5-44f0-af74-07ca016e7446</a></p><p><b>code</b>: Pharmacist <span style=\"background: LightGoldenRodYellow\">(Details : {http://www.abs.gov.au/ausstats/abs@.nsf/mf/1220.0 code '251513' = '251513', given as 'Retail Pharmacist'})</span></p><p><b>telecom</b>: zsin@gmail.com(WORK)</p></div>"
        },
        "identifier": [
          {
            "type": {
              "coding": [
                {
                  "system": "http://hl7.org/fhir/v2/0203",
                  "code": "NPI",
                  "display": "National provider identifier"
                }
              ],
              "text": "HPI-I"
            },
            "system": "http://ns.electronichealth.net.au/id/hi/hpii/1.0",
            "value": "8003611566708354"
          }
        ],
        "practitioner": {
          "reference": "urn:uuid:6312677b-2e4a-4841-a986-915905e01931"
        },
        "organization": {
          "reference": "urn:uuid:24391534-dbe5-44f0-af74-07ca016e7446"
        },
        "code": [
          {
            "coding": [
              {
                "system": "http://www.abs.gov.au/ausstats/abs@.nsf/mf/1220.0",
                "code": "251513",
                "display": "Retail Pharmacist"
              }
            ],
            "text": "Pharmacist"
          }
        ],
        "telecom": [
          {
            "system": "email",
            "value": "zsin@gmail.com",
            "use": "work"
          }
        ]
      }
    },
    {
      "fullUrl": "urn:uuid:24391534-dbe5-44f0-af74-07ca016e7446",
      "resource": {
        "resourceType": "Organization",
        "id": "24391534-dbe5-44f0-af74-07ca016e7446",
        "meta": {
          "profile": [
            "http://ns.electronichealth.net.au/ci/fhir/3.0/StructureDefinition/organization-dh-base-1"
          ]
        },
        "text": {
          "status": "generated",
          "div": "<div xmlns=\"http://www.w3.org/1999/xhtml\"><p><b>Generated Narrative with Details</b></p><p><b>id</b>: 24391534-dbe5-44f0-af74-07ca016e7446</p><p><b>meta</b>: </p><p><b>identifier</b>: HPI-O = 8003629900033370</p><p><b>type</b>: Retail Pharmacy <span style=\"background: LightGoldenRodYellow\">(Details : {http://www.abs.gov.au/ausstats/abs@.nsf/mf/1292.0 code '4271' = '4271', given as 'Retail Pharmacy'})</span></p><p><b>name</b>: Test Org - Retail Pharmacy</p><p><b>address</b>: 570 Whatcha St GLEBE NSW 2037 AU (WORK)</p></div>"
        },
        "identifier": [
          {
            "type": {
              "coding": [
                {
                  "system": "http://hl7.org.au/fhir/v2/0203",
                  "code": "NOI"
                }
              ],
              "text": "HPI-O"
            },
            "system": "http://ns.electronichealth.net.au/id/hi/hpio/1.0",
            "value": "8003629900033370"
          }
        ],
        "type": [
          {
            "coding": [
              {
                "system": "http://www.abs.gov.au/ausstats/abs@.nsf/mf/1292.0",
                "code": "4271",
                "display": "Retail Pharmacy"
              }
            ]
          }
        ],
        "name": "Test Org - Retail Pharmacy",
        "address": [
          {
            "use": "work",
            "line": [
              "570 Whatcha St"
            ],
            "city": "GLEBE",
            "state": "NSW",
            "postalCode": "2037",
            "country": "AU"
          }
        ]
      }
    },
    {
      "fullUrl": "urn:uuid:b738af06-18f5-48b8-a0d6-96d0e97c0634",
      "resource": {
        "resourceType": "Organization",
        "id": "b738af06-18f5-48b8-a0d6-96d0e97c0634",
        "text": {
          "status": "generated",
          "div": "<div xmlns=\"http://www.w3.org/1999/xhtml\"><p><b>Generated Narrative with Details</b></p><p><b>id</b>: b738af06-18f5-48b8-a0d6-96d0e97c0634</p><p><b>type</b>: Healthcare Provider <span style=\"background: LightGoldenRodYellow\">(Details : {http://hl7.org/fhir/organization-type code 'prov' = 'Healthcare Provider', given as 'Healthcare Provider'})</span>, primary care physician <span style=\"background: LightGoldenRodYellow\">(Details )</span></p><p><b>name</b>: Test Medical Centre</p></div>"
        },
        "type": [
          {
            "coding": [
              {
                "system": "http://hl7.org/fhir/organization-type",
                "code": "prov",
                "display": "Healthcare Provider"
              }
            ]
          },
          {
            "text": "primary care physician"
          }
        ],
        "name": "Test Medical Centre"
      }
    },
    {
      "fullUrl": "urn:uuid:038f9aaa-6c3d-4681-b9de-455de06a86d3",
      "resource": {
        "resourceType": "Encounter",
        "id": "038f9aaa-6c3d-4681-b9de-455de06a86d3",
        "meta": {
          "profile": [
            "http://ns.electronichealth.net.au/ci/fhir/3.0/StructureDefinition/encounter-es-1"
          ]
        },
        "text": {
          "status": "generated",
          "div": "<div xmlns=\"http://www.w3.org/1999/xhtml\"><p><b>Generated Narrative with Details</b></p><p><b>id</b>: 038f9aaa-6c3d-4681-b9de-455de06a86d3</p><p><b>meta</b>: </p><p><b>status</b>: finished</p><p><b>type</b>: Community pharmacy medicine review <span style=\"background: LightGoldenRodYellow\">(Details : {SNOMED CT code '1348961000168104' = '1348961000168104', given as 'Community pharmacy medicines review'})</span></p><p><b>subject</b>: <a href=\"urn:uuid:43acc1fd-9f9d-4f2f-8649-c290ac7ff847\">urn:uuid:43acc1fd-9f9d-4f2f-8649-c290ac7ff847</a></p><p><b>period</b>: 11/12/2018 10:00:00 AM --&gt; 11/12/2018 12:30:00 PM</p></div>"
        },
        "status": "finished",
        "type": [
          {
            "coding": [
              {
                "system": "http://snomed.info/sct",
                "code": "1348961000168104",
                "display": "Community pharmacy medicines review"
              }
            ],
            "text": "Community pharmacy medicine review"
          }
        ],
        "subject": {
          "reference": "urn:uuid:43acc1fd-9f9d-4f2f-8649-c290ac7ff847"
        },
        "period": {
          "start": "2018-12-11T10:00:00+10:00",
          "end": "2018-12-11T12:30:00+10:00"
        }
      }
    },
    {
      "fullUrl": "urn:uuid:e3677c50-8940-4793-bc43-72a33e5b6460",
      "resource": {
        "resourceType": "List",
        "id": "e3677c50-8940-4793-bc43-72a33e5b6460",
        "meta": {
          "profile": [
            "http://ns.electronichealth.net.au/ci/fhir/3.0/StructureDefinition/list-sml-pracchanges-1"
          ]
        },
        "language": "en-AU",
        "text": {
          "status": "additional",
          "div": "<div xmlns=\"http://www.w3.org/1999/xhtml\" lang=\"en-AU\">\n                        <table>\n                            <caption>Current medicines</caption>\n                            <thead>\n                                <tr>\n                                    <th>Medicine</th>\n                                    <th>Brand name</th>\n                                    <th>Direction</th>\n                                    <th>Medicine purpose</th>\n                                    <th>Medicine status</th>\n                                    <th>Expected end date</th>\n                                    <th>Special instructions</th>\n                                    <th>Medicine Image</th>\n                                    <th>Physical Description</th>\n                                </tr>\n                            </thead>\n                            <tbody>\n                                <tr>\n                                    <td/>\n                                    <td>Ferro-Grad C</td>\n                                    <td>Take one tablet daily</td>\n                                    <td>Iron Supplement</td>\n                                    <td>Unchanged</td>\n                                    <td/>\n                                    <td/>\n                                    <td/>\n                                    <td/>\n                                </tr>\n                                <tr>\n                                    <td>Amoxicillin 875 mg + clavulanic acid 125 mg tablet</td>\n                                    <td>Augmentin Duo Forte</td>\n                                    <td>Take one tablet twice a day</td>\n                                    <td>Infection</td>\n                                    <td>New</td>\n                                    <td>20/01/2019</td>\n                                    <td/>\n                                    <td/>\n                                    <td/>\n                                </tr>\n                                <tr>\n                                    <td>Metformin 500mg tablet</td>\n                                    <td>Sandoz</td>\n                                    <td>Take one tablet twice a day</td>\n                                    <td>Reduce blood sugar</td>\n                                    <td>Dose changed</td>\n                                    <td/>\n                                    <td/>\n                                      <!-- TOD add image link for 'ML1' -->\n                                    <td>insert link</td>\n                                    <td>White and round with 227 imprinted</td>\n                                </tr>\n                                <tr>\n                                    <td>Multi-vitamins</td>\n                                    <td/>\n                                    <td>Take one tablet daily</td>\n                                    <td/>\n                                    <td/>\n                                    <td/>\n                                    <td/>\n                                    <td/>\n                                    <td/>\n                                </tr>\n                                <tr>\n                                    <td>Paracetamol 665 mg caplet</td>\n                                    <td>Panadol Osteo</td>\n                                    <td>Take two caplets every 6 to 8 hours when required</td>\n                                    <td>Osteoarthritis, pain relief</td>\n                                    <td/>\n                                    <td/>\n                                    <td>No more than 6 caplets in 24 hours</td>\n                                    <td/>\n                                    <td/>\n                                </tr>\n                                <tr>\n                                    <td>Warfarin sodium 5 mg tablet</td>\n                                    <td>Coumadin</td>\n                                    <td>Take as directed by your doctor at night</td>\n                                    <td>Blood thinning</td>\n                                    <td>Withheld</td>\n                                    <td/>\n                                    <td/>\n                                    <td/>\n                                    <td>Peach.Round.Imprinted.</td>\n                                </tr>\n                            </tbody>\n                        </table>\n                        <table>\n                            <caption>Ceased medicines</caption>\n                            <thead>\n                                <tr>\n                                    <th>Medicine</th>\n                                    <th>Reason for ceasing medicine</th>\n                                    <th>Ceased date</th>\n                                </tr>\n                            </thead>\n                            <tbody>\n                                <tr>\n                                    <td/>\n                                    <td>Paracetamol 500mg tablet</td>\n                                    <td>Duplicated medicine</td>\n                                    <td>Dec 2018</td>\n                                </tr>\n                                <tr>\n                                    <td>Ibuprofen</td>\n                                    <td>Allergic Reaction</td>\n                                    <td/>\n                                </tr>\n                            </tbody>\n                        </table>\n                        <p>Packed medicines: No. Please review this list with your pharmacist on or soon after 02/Apr/2019. Community pharmacy medicine review</p>\n                    </div>"
        },
        "extension": [
          {
            "url": "http://hl7.org.au/fhir/StructureDefinition/author-role",
            "valueReference": {
              "reference": "urn:uuid:eebd7c94-e124-4c2b-95dc-a6aebbe7bb4d"
            }
          }
        ],
        "status": "current",
        "mode": "snapshot",
        "title": "Medicines List",
        "code": {
          "coding": [
            {
              "system": "http://loinc.org",
              "code": "10160-0",
              "display": "History of Medication use Narrative"
            }
          ]
        },
        "subject": {
          "reference": "urn:uuid:43acc1fd-9f9d-4f2f-8649-c290ac7ff847"
        },
        "encounter": {
          "reference": "urn:uuid:038f9aaa-6c3d-4681-b9de-455de06a86d3"
        },
        "date": "2018-12-11T12:30:00+10:00",
        "source": {
          "reference": "urn:uuid:6312677b-2e4a-4841-a986-915905e01931"
        },
        "note": [
          {
            "text": "Packed medicines: No"
          },
          {
            "text": "Please review this list with your pharmacist on or soon                         after 02/Apr/2019."
          }
        ],
        "entry": [
          {
            "flag": {
              "coding": [
                {
                  "system": "http://hl7.org.au/fhir/CodeSystem/medicine-item-change",
                  "code": "nochange",
                  "display": "Unchanged"
                }
              ]
            },
            "item": {
              "reference": "urn:uuid:32def593-e104-4cee-b8f5-d1f923efd94b"
            }
          },
          {
            "extension": [
              {
                "url": "http://hl7.org.au/fhir/StructureDefinition/change-description",
                "valueString": "Infection"
              }
            ],
            "flag": {
              "coding": [
                {
                  "system": "http://hl7.org.au/fhir/CodeSystem/medicine-item-change",
                  "code": "new",
                  "display": "New"
                }
              ]
            },
            "item": {
              "reference": "urn:uuid:f02c54ad-3562-4f7b-8956-de16769a2a88"
            }
          },
          {
            "extension": [
              {
                "url": "http://hl7.org.au/fhir/StructureDefinition/change-description",
                "valueString": "Dose changed"
              }
            ],
            "flag": {
              "coding": [
                {
                  "system": "http://hl7.org.au/fhir/CodeSystem/medicine-item-change",
                  "code": "amended",
                  "display": "Amended"
                }
              ]
            },
            "item": {
              "reference": "urn:uuid:f27faa7d-0433-484a-94ab-5a3f966bd7b1"
            }
          },
          {
            "flag": {
              "coding": [
                {
                  "system": "http://hl7.org.au/fhir/CodeSystem/medicine-item-change",
                  "code": "nochange",
                  "display": "Unchanged"
                }
              ]
            },
            "item": {
              "reference": "urn:uuid:006679bd-44a9-49df-82ba-a41db0cd6298"
            }
          },
          {
            "flag": {
              "coding": [
                {
                  "system": "http://hl7.org.au/fhir/CodeSystem/medicine-item-change",
                  "code": "nochange",
                  "display": "Unchanged"
                }
              ]
            },
            "item": {
              "reference": "urn:uuid:d14a5c15-87c9-4cf8-9047-657189898273"
            }
          },
          {
            "extension": [
              {
                "url": "http://hl7.org.au/fhir/StructureDefinition/change-description",
                "valueString": "Stopped before surgery"
              }
            ],
            "flag": {
              "coding": [
                {
                  "system": "http://hl7.org.au/fhir/CodeSystem/medicine-item-change",
                  "code": "suspended",
                  "display": "Suspended"
                }
              ]
            },
            "item": {
              "reference": "urn:uuid:ce9d0158-5f77-4c30-8aad-79500eb2c16f"
            }
          },
          {
            "extension": [
              {
                "url": "http://hl7.org.au/fhir/StructureDefinition/change-description",
                "valueString": "Duplicated medicine"
              }
            ],
            "flag": {
              "coding": [
                {
                  "system": "http://hl7.org.au/fhir/CodeSystem/medicine-item-change",
                  "code": "ceased",
                  "display": "Ceased"
                }
              ]
            },
            "item": {
              "reference": "urn:uuid:17affe2a-6496-437d-8d1a-22baae41a5ae"
            }
          },
          {
            "extension": [
              {
                "url": "http://hl7.org.au/fhir/StructureDefinition/change-description",
                "valueString": "Allergic reaction"
              }
            ],
            "flag": {
              "coding": [
                {
                  "system": "http://hl7.org.au/fhir/CodeSystem/medicine-item-change",
                  "code": "ceased"
                }
              ]
            },
            "item": {
              "reference": "urn:uuid:3f99bc18-7edf-4e2a-9eae-86629b56d06e"
            }
          }
        ]
      }
    },
    {
      "fullUrl": "urn:uuid:32def593-e104-4cee-b8f5-d1f923efd94b",
      "resource": {
        "resourceType": "MedicationStatement",
        "id": "32def593-e104-4cee-b8f5-d1f923efd94b",
        "meta": {
          "profile": [
            "http://ns.electronichealth.net.au/ci/fhir/3.0/StructureDefinition/medicationstatement-detailed-1"
          ]
        },
        "text": {
          "status": "generated",
          "div": "<div xmlns=\"http://www.w3.org/1999/xhtml\"><p><b>Generated Narrative with Details</b></p><p><b>id</b>: 32def593-e104-4cee-b8f5-d1f923efd94b</p><p><b>meta</b>: </p><p><b>status</b>: active</p><p><b>medication</b>: <a href=\"urn:uuid:27046ef9-d808-46d4-a028-0ef182b7a8b2\">urn:uuid:27046ef9-d808-46d4-a028-0ef182b7a8b2</a></p><p><b>subject</b>: <a href=\"urn:uuid:43acc1fd-9f9d-4f2f-8649-c290ac7ff847\">urn:uuid:43acc1fd-9f9d-4f2f-8649-c290ac7ff847</a></p><p><b>taken</b>: y</p><p><b>reasonCode</b>: Iron supplement <span style=\"background: LightGoldenRodYellow\">(Details )</span></p><p><b>dosage</b>: </p></div>"
        },
        "status": "active",
        "medicationReference": {
          "reference": "urn:uuid:27046ef9-d808-46d4-a028-0ef182b7a8b2"
        },
        "subject": {
          "reference": "urn:uuid:43acc1fd-9f9d-4f2f-8649-c290ac7ff847"
        },
        "taken": "y",
        "reasonCode": [
          {
            "text": "Iron supplement"
          }
        ],
        "dosage": [
          {
            "text": "Take one tablet daily"
          }
        ]
      }
    },
    {
      "fullUrl": "urn:uuid:27046ef9-d808-46d4-a028-0ef182b7a8b2",
      "resource": {
        "resourceType": "Medication",
        "id": "27046ef9-d808-46d4-a028-0ef182b7a8b2",
        "meta": {
          "profile": [
            "http://ns.electronichealth.net.au/ci/fhir/3.0/StructureDefinition/medication-dh-base-1"
          ]
        },
        "text": {
          "status": "generated",
          "div": "<div xmlns=\"http://www.w3.org/1999/xhtml\"><p><b>Generated Narrative with Details</b></p><p><b>id</b>: 27046ef9-d808-46d4-a028-0ef182b7a8b2</p><p><b>meta</b>: </p><p><b>code</b>: Ferro-Grad C <span style=\"background: LightGoldenRodYellow\">(Details : {SNOMED CT code '53373011000036103' = '53373011000036103', given as 'Ferro-Grad C'})</span></p></div>"
        },
        "code": {
          "coding": [
            {
              "system": "http://snomed.info/sct",
              "code": "53373011000036103",
              "display": "Ferro-Grad C"
            }
          ],
          "text": "Ferro-Grad C"
        }
      }
    },
    {
      "fullUrl": "urn:uuid:f02c54ad-3562-4f7b-8956-de16769a2a88",
      "resource": {
        "resourceType": "MedicationStatement",
        "id": "f02c54ad-3562-4f7b-8956-de16769a2a88",
        "meta": {
          "profile": [
            "http://ns.electronichealth.net.au/ci/fhir/3.0/StructureDefinition/medicationstatement-detailed-1"
          ]
        },
        "text": {
          "status": "generated",
          "div": "<div xmlns=\"http://www.w3.org/1999/xhtml\"><p><b>Generated Narrative with Details</b></p><p><b>id</b>: f02c54ad-3562-4f7b-8956-de16769a2a88</p><p><b>meta</b>: </p><p><b>status</b>: active</p><p><b>medication</b>: <a href=\"urn:uuid:c09df0db-3050-4b62-bb27-7c9b743d59bd\">urn:uuid:c09df0db-3050-4b62-bb27-7c9b743d59bd</a></p><p><b>effective</b>: 10/12/2018 12:00:00 AM --&gt; 20/01/2019 12:00:00 AM</p><p><b>subject</b>: <a href=\"urn:uuid:43acc1fd-9f9d-4f2f-8649-c290ac7ff847\">urn:uuid:43acc1fd-9f9d-4f2f-8649-c290ac7ff847</a></p><p><b>taken</b>: y</p><p><b>reasonCode</b>: Infection <span style=\"background: LightGoldenRodYellow\">(Details )</span></p><p><b>dosage</b>: </p></div>"
        },
        "status": "active",
        "medicationReference": {
          "reference": "urn:uuid:c09df0db-3050-4b62-bb27-7c9b743d59bd"
        },
        "effectivePeriod": {
          "start": "2018-12-10",
          "end": "2019-01-20"
        },
        "subject": {
          "reference": "urn:uuid:43acc1fd-9f9d-4f2f-8649-c290ac7ff847"
        },
        "taken": "y",
        "reasonCode": [
          {
            "text": "Infection"
          }
        ],
        "dosage": [
          {
            "text": "Take one tablet twice a day",
            "timing": {
              "repeat": {
                "frequency": 1,
                "period": 12,
                "periodUnit": "h"
              }
            }
          }
        ]
      }
    },
    {
      "fullUrl": "urn:uuid:c09df0db-3050-4b62-bb27-7c9b743d59bd",
      "resource": {
        "resourceType": "Medication",
        "id": "c09df0db-3050-4b62-bb27-7c9b743d59bd",
        "meta": {
          "profile": [
            "http://ns.electronichealth.net.au/ci/fhir/3.0/StructureDefinition/medication-dh-base-1"
          ]
        },
        "text": {
          "status": "generated",
          "div": "<div xmlns=\"http://www.w3.org/1999/xhtml\"><p><b>Generated Narrative with Details</b></p><p><b>id</b>: c09df0db-3050-4b62-bb27-7c9b743d59bd</p><p><b>meta</b>: </p><p><b>code</b>: Augmentin Duo Forte <span style=\"background: LightGoldenRodYellow\">(Details : {SNOMED CT code '12758011000036106' = '12758011000036106', given as 'Augmentin Duo Forte 875/125 film-coated tablet, 10'}; {http://pbs.gov.au/code/item code '5006L' = '5006L', given as 'amoxicillin 875 mg + clavulanic acid 125 mg tablet, 10'})</span></p></div>"
        },
        "extension": [
          {
            "url": "http://hl7.org.au/fhir/StructureDefinition/medication-brand-name",
            "valueString": "Augmentin Duo Forte"
          },
          {
            "url": "http://hl7.org.au/fhir/StructureDefinition/medication-generic-name",
            "valueString": "Amoxicillin 875 mg + clavulanic acid 125 mg tablet"
          }
        ],
        "code": {
          "coding": [
            {
              "system": "http://snomed.info/sct",
              "code": "12758011000036106",
              "display": "Augmentin Duo Forte 875/125 film-coated tablet, 10"
            },
            {
              "system": "http://pbs.gov.au/code/item",
              "code": "5006L",
              "display": "amoxicillin 875 mg + clavulanic acid 125 mg tablet, 10"
            }
          ],
          "text": "Augmentin Duo Forte"
        }
      }
    },
    {
      "fullUrl": "urn:uuid:f27faa7d-0433-484a-94ab-5a3f966bd7b1",
      "resource": {
        "resourceType": "MedicationStatement",
        "id": "f27faa7d-0433-484a-94ab-5a3f966bd7b1",
        "meta": {
          "profile": [
            "http://ns.electronichealth.net.au/ci/fhir/3.0/StructureDefinition/medicationstatement-detailed-1"
          ]
        },
        "text": {
          "status": "generated",
          "div": "<div xmlns=\"http://www.w3.org/1999/xhtml\"><p><b>Generated Narrative with Details</b></p><p><b>id</b>: f27faa7d-0433-484a-94ab-5a3f966bd7b1</p><p><b>meta</b>: </p><p><b>status</b>: active</p><p><b>medication</b>: <a href=\"urn:uuid:d45954e8-80ae-4610-b235-239e9d352799\">urn:uuid:d45954e8-80ae-4610-b235-239e9d352799</a></p><p><b>subject</b>: <a href=\"urn:uuid:43acc1fd-9f9d-4f2f-8649-c290ac7ff847\">urn:uuid:43acc1fd-9f9d-4f2f-8649-c290ac7ff847</a></p><p><b>taken</b>: y</p><p><b>reasonCode</b>: Reduce blood sugar <span style=\"background: LightGoldenRodYellow\">(Details )</span></p><p><b>dosage</b>: </p></div>"
        },
        "status": "active",
        "medicationReference": {
          "reference": "urn:uuid:d45954e8-80ae-4610-b235-239e9d352799"
        },
        "subject": {
          "reference": "urn:uuid:43acc1fd-9f9d-4f2f-8649-c290ac7ff847"
        },
        "taken": "y",
        "reasonCode": [
          {
            "text": "Reduce blood sugar"
          }
        ],
        "dosage": [
          {
            "text": "Take one tablet twice a day"
          }
        ]
      }
    },
    {
      "fullUrl": "urn:uuid:d45954e8-80ae-4610-b235-239e9d352799",
      "resource": {
        "resourceType": "Medication",
        "id": "d45954e8-80ae-4610-b235-239e9d352799",
        "meta": {
          "profile": [
            "http://ns.electronichealth.net.au/ci/fhir/3.0/StructureDefinition/medication-dh-base-1"
          ]
        },
        "text": {
          "status": "generated",
          "div": "<div xmlns=\"http://www.w3.org/1999/xhtml\"><p><b>Generated Narrative with Details</b></p><p><b>id</b>: d45954e8-80ae-4610-b235-239e9d352799</p><p><b>meta</b>: </p><p><b>code</b>: Metformin 500mg tablet, Sandoz <span style=\"background: LightGoldenRodYellow\">(Details : {SNOMED CT code '23358011000036102' = '23358011000036102', given as 'metformin hydrochloride 500 mg tablet'})</span></p></div>"
        },
        "extension": [
          {
            "url": "http://hl7.org.au/fhir/StructureDefinition/medication-brand-name",
            "valueString": "Sandoz"
          }
        ],
        "code": {
          "coding": [
            {
              "system": "http://snomed.info/sct",
              "code": "23358011000036102",
              "display": "metformin hydrochloride 500 mg tablet"
            }
          ],
          "text": "Metformin 500mg tablet, Sandoz"
        }
      }
    },
    {
      "fullUrl": "urn:uuid:006679bd-44a9-49df-82ba-a41db0cd6298",
      "resource": {
        "resourceType": "MedicationStatement",
        "id": "006679bd-44a9-49df-82ba-a41db0cd6298",
        "meta": {
          "profile": [
            "http://ns.electronichealth.net.au/ci/fhir/3.0/StructureDefinition/medicationstatement-detailed-1"
          ]
        },
        "text": {
          "status": "generated",
          "div": "<div xmlns=\"http://www.w3.org/1999/xhtml\"><p><b>Generated Narrative with Details</b></p><p><b>id</b>: 006679bd-44a9-49df-82ba-a41db0cd6298</p><p><b>meta</b>: </p><p><b>status</b>: active</p><p><b>medication</b>: <a href=\"urn:uuid:4418bed2-2ae9-4d0a-9acd-d70ab8284c50\">urn:uuid:4418bed2-2ae9-4d0a-9acd-d70ab8284c50</a></p><p><b>subject</b>: <a href=\"urn:uuid:43acc1fd-9f9d-4f2f-8649-c290ac7ff847\">urn:uuid:43acc1fd-9f9d-4f2f-8649-c290ac7ff847</a></p><p><b>taken</b>: y</p><p><b>dosage</b>: </p></div>"
        },
        "status": "active",
        "medicationReference": {
          "reference": "urn:uuid:4418bed2-2ae9-4d0a-9acd-d70ab8284c50"
        },
        "subject": {
          "reference": "urn:uuid:43acc1fd-9f9d-4f2f-8649-c290ac7ff847"
        },
        "taken": "y",
        "dosage": [
          {
            "text": "Take one tablet daily"
          }
        ]
      }
    },
    {
      "fullUrl": "urn:uuid:4418bed2-2ae9-4d0a-9acd-d70ab8284c50",
      "resource": {
        "resourceType": "Medication",
        "id": "4418bed2-2ae9-4d0a-9acd-d70ab8284c50",
        "meta": {
          "profile": [
            "http://ns.electronichealth.net.au/ci/fhir/3.0/StructureDefinition/medication-dh-base-1"
          ]
        },
        "text": {
          "status": "generated",
          "div": "<div xmlns=\"http://www.w3.org/1999/xhtml\"><p><b>Generated Narrative with Details</b></p><p><b>id</b>: 4418bed2-2ae9-4d0a-9acd-d70ab8284c50</p><p><b>meta</b>: </p><p><b>code</b>: Multi-vitamins <span style=\"background: LightGoldenRodYellow\">(Details )</span></p></div>"
        },
        "extension": [
          {
            "url": "http://hl7.org.au/fhir/StructureDefinition/medication-generic-name",
            "valueString": "Multi-vitamins"
          }
        ],
        "code": {
          "text": "Multi-vitamins"
        }
      }
    },
    {
      "fullUrl": "urn:uuid:d14a5c15-87c9-4cf8-9047-657189898273",
      "resource": {
        "resourceType": "MedicationStatement",
        "id": "d14a5c15-87c9-4cf8-9047-657189898273",
        "meta": {
          "profile": [
            "http://ns.electronichealth.net.au/ci/fhir/3.0/StructureDefinition/medicationstatement-detailed-1"
          ]
        },
        "text": {
          "status": "generated",
          "div": "<div xmlns=\"http://www.w3.org/1999/xhtml\"><p><b>Generated Narrative with Details</b></p><p><b>id</b>: d14a5c15-87c9-4cf8-9047-657189898273</p><p><b>meta</b>: </p><p><b>status</b>: active</p><p><b>medication</b>: <a href=\"urn:uuid:9574e2d4-863b-11e9-a159-526af7764f64\">urn:uuid:9574e2d4-863b-11e9-a159-526af7764f64</a></p><p><b>subject</b>: <a href=\"urn:uuid:43acc1fd-9f9d-4f2f-8649-c290ac7ff847\">urn:uuid:43acc1fd-9f9d-4f2f-8649-c290ac7ff847</a></p><p><b>taken</b>: y</p><p><b>reasonCode</b>: Osteoarthritis, pain relief <span style=\"background: LightGoldenRodYellow\">(Details )</span></p><p><b>dosage</b>: </p></div>"
        },
        "status": "active",
        "medicationReference": {
          "reference": "urn:uuid:9574e2d4-863b-11e9-a159-526af7764f64"
        },
        "subject": {
          "reference": "urn:uuid:43acc1fd-9f9d-4f2f-8649-c290ac7ff847"
        },
        "taken": "y",
        "reasonCode": [
          {
            "text": "Osteoarthritis, pain relief"
          }
        ],
        "dosage": [
          {
            "text": "Take two caplets every 6 to 8 hours when required",
            "patientInstruction": "No more than 6 caplets in 24 hours"
          }
        ]
      }
    },
    {
      "fullUrl": "urn:uuid:9574e2d4-863b-11e9-a159-526af7764f64",
      "resource": {
        "resourceType": "Medication",
        "id": "9574e2d4-863b-11e9-a159-526af7764f64",
        "meta": {
          "profile": [
            "http://ns.electronichealth.net.au/ci/fhir/3.0/StructureDefinition/medication-dh-base-1"
          ]
        },
        "text": {
          "status": "generated",
          "div": "<div xmlns=\"http://www.w3.org/1999/xhtml\"><p><b>Generated Narrative with Details</b></p><p><b>id</b>: 9574e2d4-863b-11e9-a159-526af7764f64</p><p><b>meta</b>: </p><p><b>code</b>: Panadol Osteo <span style=\"background: LightGoldenRodYellow\">(Details )</span></p></div>"
        },
        "extension": [
          {
            "url": "http://hl7.org.au/fhir/StructureDefinition/medication-brand-name",
            "valueString": "Panadol Osteo"
          },
          {
            "url": "http://hl7.org.au/fhir/StructureDefinition/medication-generic-name",
            "valueString": "Paracetamol 665mg caplet"
          }
        ],
        "code": {
          "text": "Panadol Osteo"
        }
      }
    },
    {
      "fullUrl": "urn:uuid:ce9d0158-5f77-4c30-8aad-79500eb2c16f",
      "resource": {
        "resourceType": "MedicationStatement",
        "id": "ce9d0158-5f77-4c30-8aad-79500eb2c16f",
        "meta": {
          "profile": [
            "http://ns.electronichealth.net.au/ci/fhir/3.0/StructureDefinition/medicationstatement-detailed-1"
          ]
        },
        "text": {
          "status": "generated",
          "div": "<div xmlns=\"http://www.w3.org/1999/xhtml\"><p><b>Generated Narrative with Details</b></p><p><b>id</b>: ce9d0158-5f77-4c30-8aad-79500eb2c16f</p><p><b>meta</b>: </p><p><b>status</b>: active</p><p><b>medication</b>: <a href=\"urn:uuid:19ae06e9-0242-41eb-b386-5c147b01e88f\">urn:uuid:19ae06e9-0242-41eb-b386-5c147b01e88f</a></p><p><b>subject</b>: <a href=\"urn:uuid:43acc1fd-9f9d-4f2f-8649-c290ac7ff847\">urn:uuid:43acc1fd-9f9d-4f2f-8649-c290ac7ff847</a></p><p><b>taken</b>: y</p><p><b>reasonCode</b>: Blood thining <span style=\"background: LightGoldenRodYellow\">(Details )</span></p><p><b>dosage</b>: </p></div>"
        },
        "status": "active",
        "medicationReference": {
          "reference": "urn:uuid:19ae06e9-0242-41eb-b386-5c147b01e88f"
        },
        "subject": {
          "reference": "urn:uuid:43acc1fd-9f9d-4f2f-8649-c290ac7ff847"
        },
        "taken": "y",
        "reasonCode": [
          {
            "text": "Blood thining"
          }
        ],
        "dosage": [
          {
            "text": "Take as directed by your doctor at night"
          }
        ]
      }
    },
    {
      "fullUrl": "urn:uuid:19ae06e9-0242-41eb-b386-5c147b01e88f",
      "resource": {
        "resourceType": "Medication",
        "id": "19ae06e9-0242-41eb-b386-5c147b01e88f",
        "meta": {
          "profile": [
            "http://ns.electronichealth.net.au/ci/fhir/3.0/StructureDefinition/medication-dh-base-1"
          ]
        },
        "text": {
          "status": "generated",
          "div": "<div xmlns=\"http://www.w3.org/1999/xhtml\"><p><b>Generated Narrative with Details</b></p><p><b>id</b>: 19ae06e9-0242-41eb-b386-5c147b01e88f</p><p><b>meta</b>: </p><p><b>code</b>: Warfarin sodium 5 mg tablet, Coumadin <span style=\"background: LightGoldenRodYellow\">(Details : {SNOMED CT code '22464011000036101' = '22464011000036101', given as 'warfarin sodium 5 mg tablet'})</span></p></div>"
        },
        "extension": [
          {
            "url": "http://hl7.org.au/fhir/StructureDefinition/medication-brand-name",
            "valueString": "Coumadin"
          }
        ],
        "code": {
          "coding": [
            {
              "system": "http://snomed.info/sct",
              "code": "22464011000036101",
              "display": "warfarin sodium 5 mg tablet"
            }
          ],
          "text": "Warfarin sodium 5 mg tablet, Coumadin"
        }
      }
    },
    {
      "fullUrl": "urn:uuid:17affe2a-6496-437d-8d1a-22baae41a5ae",
      "resource": {
        "resourceType": "MedicationStatement",
        "id": "17affe2a-6496-437d-8d1a-22baae41a5ae",
        "meta": {
          "profile": [
            "http://ns.electronichealth.net.au/ci/fhir/3.0/StructureDefinition/medicationstatement-detailed-1"
          ]
        },
        "text": {
          "status": "generated",
          "div": "<div xmlns=\"http://www.w3.org/1999/xhtml\"><p><b>Generated Narrative with Details</b></p><p><b>id</b>: 17affe2a-6496-437d-8d1a-22baae41a5ae</p><p><b>meta</b>: </p><p><b>status</b>: stopped</p><p><b>medication</b>: <a href=\"urn:uuid:37c3cb4d-37cd-4e4e-985f-d1b8fd44fbb7\">urn:uuid:37c3cb4d-37cd-4e4e-985f-d1b8fd44fbb7</a></p><p><b>effective</b>: ?? --&gt; 01/12/2018 12:00:00 AM</p><p><b>subject</b>: <a href=\"urn:uuid:43acc1fd-9f9d-4f2f-8649-c290ac7ff847\">urn:uuid:43acc1fd-9f9d-4f2f-8649-c290ac7ff847</a></p><p><b>taken</b>: y</p><p><b>dosage</b>: </p></div>"
        },
        "status": "stopped",
        "medicationReference": {
          "reference": "urn:uuid:37c3cb4d-37cd-4e4e-985f-d1b8fd44fbb7"
        },
        "effectivePeriod": {
          "end": "2018-12"
        },
        "subject": {
          "reference": "urn:uuid:43acc1fd-9f9d-4f2f-8649-c290ac7ff847"
        },
        "taken": "y",
        "dosage": [
          {
            "text": "Unknown; medication ceased"
          }
        ]
      }
    },
    {
      "fullUrl": "urn:uuid:37c3cb4d-37cd-4e4e-985f-d1b8fd44fbb7",
      "resource": {
        "resourceType": "Medication",
        "id": "37c3cb4d-37cd-4e4e-985f-d1b8fd44fbb7",
        "meta": {
          "profile": [
            "http://ns.electronichealth.net.au/ci/fhir/3.0/StructureDefinition/medication-dh-base-1"
          ]
        },
        "text": {
          "status": "generated",
          "div": "<div xmlns=\"http://www.w3.org/1999/xhtml\"><p><b>Generated Narrative with Details</b></p><p><b>id</b>: 37c3cb4d-37cd-4e4e-985f-d1b8fd44fbb7</p><p><b>meta</b>: </p><p><b>code</b>: Paracetamol 500 mg tablet <span style=\"background: LightGoldenRodYellow\">(Details : {SNOMED CT code '22464011000036101' = '22464011000036101', given as 'Paracetamol 500 mg tablet'})</span></p></div>"
        },
        "code": {
          "coding": [
            {
              "system": "http://snomed.info/sct",
              "code": "22464011000036101",
              "display": "Paracetamol 500 mg tablet"
            }
          ],
          "text": "Paracetamol 500 mg tablet"
        }
      }
    },
    {
      "fullUrl": "urn:uuid:3f99bc18-7edf-4e2a-9eae-86629b56d06e",
      "resource": {
        "resourceType": "MedicationStatement",
        "id": "3f99bc18-7edf-4e2a-9eae-86629b56d06e",
        "meta": {
          "profile": [
            "http://ns.electronichealth.net.au/ci/fhir/3.0/StructureDefinition/medicationstatement-detailed-1"
          ]
        },
        "text": {
          "status": "generated",
          "div": "<div xmlns=\"http://www.w3.org/1999/xhtml\"><p><b>Generated Narrative with Details</b></p><p><b>id</b>: 3f99bc18-7edf-4e2a-9eae-86629b56d06e</p><p><b>meta</b>: </p><p><b>status</b>: stopped</p><p><b>medication</b>: <a href=\"Medication-2a506a7c-aab0-4af3-9ea3-3f47ebe16e3d.html\">Generated Summary: id: 2a506a7c-aab0-4af3-9ea3-3f47ebe16e3d; <span title=\"Codes: {http://snomed.info/sct 21885011000036105}\">Ibuprofen</span></a></p><p><b>subject</b>: <a href=\"urn:uuid:43acc1fd-9f9d-4f2f-8649-c290ac7ff847\">urn:uuid:43acc1fd-9f9d-4f2f-8649-c290ac7ff847</a></p><p><b>taken</b>: y</p><p><b>dosage</b>: </p></div>"
        },
        "status": "stopped",
        "medicationReference": {
          "reference": "Medication/2a506a7c-aab0-4af3-9ea3-3f47ebe16e3d"
        },
        "subject": {
          "reference": "urn:uuid:43acc1fd-9f9d-4f2f-8649-c290ac7ff847"
        },
        "taken": "y",
        "dosage": [
          {
            "text": "Unknown; medication ceased"
          }
        ]
      }
    },
    {
      "fullUrl": "urn:uuid:2a506a7c-aab0-4af3-9ea3-3f47ebe16e3d",
      "resource": {
        "resourceType": "Medication",
        "id": "2a506a7c-aab0-4af3-9ea3-3f47ebe16e3d",
        "meta": {
          "profile": [
            "http://ns.electronichealth.net.au/ci/fhir/3.0/StructureDefinition/medication-dh-base-1"
          ]
        },
        "text": {
          "status": "generated",
          "div": "<div xmlns=\"http://www.w3.org/1999/xhtml\"><p><b>Generated Narrative with Details</b></p><p><b>id</b>: 2a506a7c-aab0-4af3-9ea3-3f47ebe16e3d</p><p><b>meta</b>: </p><p><b>code</b>: Ibuprofen <span style=\"background: LightGoldenRodYellow\">(Details : {SNOMED CT code '21885011000036105' = '21885011000036105', given as 'Ibuprofen'})</span></p></div>"
        },
        "code": {
          "coding": [
            {
              "system": "http://snomed.info/sct",
              "code": "21885011000036105",
              "display": "Ibuprofen"
            }
          ],
          "text": "Ibuprofen"
        }
      }
    },
    {
      "fullUrl": "urn:uuid:7f834da9-63f5-4a66-a847-a32c366701ff",
      "resource": {
        "resourceType": "AllergyIntolerance",
        "id": "7f834da9-63f5-4a66-a847-a32c366701ff",
        "meta": {
          "profile": [
            "http://ns.electronichealth.net.au/ci/fhir/3.0/StructureDefinition/allergyintolerance-summary-1"
          ]
        },
        "text": {
          "status": "generated",
          "div": "<div xmlns=\"http://www.w3.org/1999/xhtml\"><p><b>Generated Narrative with Details</b></p><p><b>id</b>: 7f834da9-63f5-4a66-a847-a32c366701ff</p><p><b>meta</b>: </p><p><b>clinicalStatus</b>: active</p><p><b>verificationStatus</b>: unconfirmed</p><p><b>type</b>: allergy</p><p><b>code</b>: ibuprofen <span style=\"background: LightGoldenRodYellow\">(Details : {SNOMED CT code '21885011000036105' = '21885011000036105', given as 'Ibuprofen'})</span></p><p><b>patient</b>: <a href=\"urn:uuid:43acc1fd-9f9d-4f2f-8649-c290ac7ff847\">urn:uuid:43acc1fd-9f9d-4f2f-8649-c290ac7ff847</a></p><p><b>onset</b>: 01/10/2016</p><h3>Reactions</h3><table class=\"grid\"><tr><td>-</td><td><b>Substance</b></td><td><b>Manifestation</b></td></tr><tr><td>*</td><td>ibuprofen <span style=\"background: LightGoldenRodYellow\">(Details : {SNOMED CT code '21885011000036105' = '21885011000036105', given as 'Ibuprofen'})</span></td><td>Anaphylaxis <span style=\"background: LightGoldenRodYellow\">(Details : {SNOMED CT code '39579001' = 'Generalized anaphylaxis', given as 'Anaphylaxis'})</span></td></tr></table></div>"
        },
        "clinicalStatus": "active",
        "verificationStatus": "unconfirmed",
        "type": "allergy",
        "code": {
          "coding": [
            {
              "system": "http://snomed.info/sct",
              "code": "21885011000036105",
              "display": "Ibuprofen"
            }
          ],
          "text": "ibuprofen"
        },
        "patient": {
          "reference": "urn:uuid:43acc1fd-9f9d-4f2f-8649-c290ac7ff847"
        },
        "onsetDateTime": "2016-10",
        "reaction": [
          {
            "substance": {
              "coding": [
                {
                  "system": "http://snomed.info/sct",
                  "code": "21885011000036105",
                  "display": "Ibuprofen"
                }
              ],
              "text": "ibuprofen"
            },
            "manifestation": [
              {
                "coding": [
                  {
                    "system": "http://snomed.info/sct",
                    "code": "39579001",
                    "display": "Anaphylaxis"
                  }
                ],
                "text": "Anaphylaxis"
              }
            ]
          }
        ]
      }
    }
  ]
}