{
  "resourceType": "Bundle",
  "id": "b50acc1e-3f4e-41d3-9c21-dda924adb210",
  "meta": {
    "lastUpdated": "2019-08-12T10:30:00+10:00"
  },
  "identifier": {
    "system": "urn:ietf:rfc:3986",
    "value": "urn:uuid:a1446554-f351-47b0-86f0-10baedadac60"
  },
  "type": "document",
  "entry": [
    {
      "fullUrl": "urn:uuid:fbb76e2c-62d9-40d9-bab3-00bd389b1913",
      "resource": {
        "resourceType": "Composition",
        "id": "fbb76e2c-62d9-40d9-bab3-00bd389b1913",
        "meta": {
          "versionId": "20190812v01",
          "profile": [
            "http://ns.electronichealth.net.au/ci/fhir/3.0/StructureDefinition/composition-sml-prac-1"
          ]
        },
        "language": "en-AU",
        "text": {
          "status": "additional",
          "div": "<div xmlns=\"http://www.w3.org/1999/xhtml\">\n                        <h2>Shared Medicines List</h2>\n                        <ul>\n                            <li>Date: 12/08/2019</li>\n                            <li>Status: final</li>\n                        </ul>\n                        <h3>Patient details</h3>\n                        <ul>\n                            <li>Mrs Bonny Goodwin</li>\n                            <li>Contact: (08) 5550 1234 (home phone); 0491 570 006 (mobile)</li>\n                            <li>Female</li>\n                            <li>Married</li>\n                            <li>IHI: 8003608000228445</li>\n                            <li>Medicare number: 3951032981</li>\n                        </ul>\n                        <h3>Author details</h3>\n                        <ul>\n                            <li>Pharmacist</li>\n                            <li>HPI-I: 8003619900041630</li>\n                        </ul>\n                        <h3>Attester details</h3>\n                        <ul>\n                            <li>Pharmacist</li>\n                            <li>HPI-I: 8003619900041630</li>\n                            <li>Time: 02 Dec 2019 10:00 AM</li>\n                        </ul>\n                        <h3>General Practitioner</h3>\n                        <ul>\n                            <li>Dr. G. Practitioner</li>\n                        </ul>\n                        <h3>Allergies and Intolerances</h3>\n                        <p>No known allergies</p>\n\n                        <h3>Encounter Details</h3>\n                        <p>Medicines review: 12 Aug 2019 09:00 AM to 12 Aug 2019 10:30 AM</p>\n\n                        <h3>Current Medicines</h3>\n                        <table border=\"1\">\n                            <caption>Current medicines</caption>\n                            <thead>\n                                <tr>\n                                    <th>Medicine</th>\n                                    <th>Medicine brand name</th>\n                                    <th>Directions</th>\n                                    <th>Purpose</th>\n                                    <th>Status</th>\n                                    <th>Status reason</th>\n                                </tr>\n                            </thead>\n                            <tbody>\n                                <tr>\n                                    <td/>\n                                    <td>Tritace</td>\n                                    <td>Take one tablet in the morning daily.</td>\n                                    <td>To reduce high blood pressure; treat heart failure after a\n                                        heart attack; prevent progresion of kidney failure; reduce\n                                        the risk of heart attack, stroke and stenting</td>\n                                    <td>Unchanged</td>\n                                    <td/>\n                                </tr>\n                                <tr>\n                                    <td>docusate sodium 50 mg + sennoside B 8 mg tablet</td>\n                                    <td>Co-Senna</td>\n                                    <td>Take two tablets twice a day.</td>\n                                    <td>Laxative for constipation, works by softening the stools and\n                                        also assists by stimulating the gut to achieve bowel\n                                        movements.</td>\n                                    <td>New</td>\n                                    <td>Laxative for constipation.</td>\n                                </tr>\n                                <tr>\n                                    <td>Oxycodone</td>\n                                    <td>Endone</td>\n                                    <td>Take one to two tablets every four hours when required.</td>\n                                    <td>For relief of moderate to severe pain.</td>\n                                    <td>Amended</td>\n                                    <td>Dose increased</td>\n                                </tr>\n                            </tbody>\n                        </table>\n                    </div>"
        },
        "extension": [
          {
            "url": "http://hl7.org.au/fhir/StructureDefinition/composition-author-role",
            "valueReference": {
              "identifier": {
                "type": {
                  "coding": [
                    {
                      "system": "http://hl7.org/fhir/v2/0203",
                      "code": "NPI",
                      "display": "National provider identifier"
                    }
                  ],
                  "text": "HPI-I"
                },
                "system": "http://ns.electronichealth.net.au/id/hi/hpii/1.0",
                "value": "8003619900041630"
              }
            }
          }
        ],
        "status": "final",
        "type": {
          "coding": [
            {
              "system": "http://loinc.org",
              "code": "56445-0"
            }
          ]
        },
        "subject": {
          "identifier": {
            "type": {
              "coding": [
                {
                  "system": "http://hl7.org/fhir/v2/0203",
                  "code": "NI",
                  "display": "National unique individual identifier"
                }
              ]
            },
            "system": "http://ns.electronichealth.net.au/id/hi/ihi/1.0",
            "value": "8003608000228445"
          }
        },
        "encounter": {
          "reference": "urn:uuid:f168de08-0068-4e8b-917d-c7b84dcafbf6"
        },
        "date": "2019-08-12",
        "author": [
          {
            "identifier": {
              "type": {
                "coding": [
                  {
                    "system": "http://hl7.org/fhir/v2/0203",
                    "code": "NPI",
                    "display": "National provider identifier"
                  }
                ],
                "text": "HPI-I"
              },
              "system": "http://ns.electronichealth.net.au/id/hi/hpii/1.0",
              "value": "8003619900041630"
            }
          }
        ],
        "title": "Shared Medicines List",
        "attester": [
          {
            "mode": [
              "legal"
            ],
            "time": "2019-09-02T10:00:15+10:00",
            "party": {
              "identifier": {
                "type": {
                  "coding": [
                    {
                      "system": "http://hl7.org/fhir/v2/0203",
                      "code": "NPI",
                      "display": "National provider identifier"
                    }
                  ],
                  "text": "HPI-I"
                },
                "system": "http://ns.electronichealth.net.au/id/hi/hpii/1.0",
                "value": "8003619900041630"
              }
            }
          }
        ],
        "custodian": {
          "identifier": {
            "type": {
              "coding": [
                {
                  "system": "http://hl7.org.au/fhir/v2/0203",
                  "code": "NOI"
                }
              ],
              "text": "HPI-O"
            },
            "system": "http://ns.electronichealth.net.au/id/hi/hpio/1.0",
            "value": "8003623233366573"
          }
        },
        "section": [
          {
            "title": "Allergies and Intolerances",
            "code": {
              "coding": [
                {
                  "system": "http://loinc.org",
                  "code": "48765-2"
                }
              ]
            },
            "text": {
              "status": "generated",
              "div": "<div xmlns=\"http://www.w3.org/1999/xhtml\" lang=\"en-AU\">\n                            <p>No known allergies</p>\n                        </div>"
            },
            "entry": [
              {
                "reference": "urn:uuid:9e146d18-06c8-4906-a8dd-09aa11941a72"
              }
            ]
          },
          {
            "title": "Current Medicines",
            "code": {
              "coding": [
                {
                  "system": "https://healthterminologies.gov.au/fhir/CodeSystem/nctis-data-components-1",
                  "code": "101.32009",
                  "display": "Current Medicines"
                }
              ]
            },
            "text": {
              "status": "extensions",
              "div": "<div xmlns=\"http://www.w3.org/1999/xhtml\" lang=\"en-AU\">\n                            <table border=\"1\">\n                                <caption>Current Medicines</caption>\n                                <thead>\n                                    <tr>\n                                        <th>Medicine</th>\n                                        <th>Medicine brand name</th>\n                                        <th>Directions</th>\n                                        <th>Purpose</th>\n                                        <th>Status</th>\n                                        <th>Status reason</th>\n                                    </tr>\n                                </thead>\n                                <tbody>\n                                    <tr>\n                                        <td/>\n                                        <td>Tritace</td>\n                                        <td>Take one tablet in the morning daily.</td>\n                                        <td>To reduce high blood pressure; treat heart failure after\n                                            a heart attack; prevent progresion of kidney failure;\n                                            reduce the risk of heart attack, stroke and\n                                            stenting</td>\n                                        <td>Unchanged</td>\n                                        <td/>\n                                    </tr>\n                                    <tr>\n                                        <td>docusate sodium 50 mg + sennoside B 8 mg tablet</td>\n                                        <td>Co-Senna</td>\n                                        <td>Take two tablets twice a day.</td>\n                                        <td>Laxative for constipation, works by softening the stools\n                                            and also assists by stimulating the gut to achieve bowel\n                                            movements.</td>\n                                        <td>New</td>\n                                        <td>Laxative for constipation.</td>\n                                    </tr>\n                                    <tr>\n                                        <td>Oxycodone</td>\n                                        <td>Endone</td>\n                                        <td>Take one to two tablets every four hours when\n                                            required.</td>\n                                        <td>For relief of moderate to severe pain.</td>\n                                        <td>Amended</td>\n                                        <td>Dose increased</td>\n                                    </tr>\n                                </tbody>\n                            </table>\n                        </div>"
            },
            "entry": [
              {
                "reference": "urn:uuid:bea8b6f7-5de8-4247-ac07-b319ec6d0c24"
              }
            ]
          }
        ]
      }
    },
    {
      "fullUrl": "urn:uuid:f168de08-0068-4e8b-917d-c7b84dcafbf6",
      "resource": {
        "resourceType": "Encounter",
        "id": "f168de08-0068-4e8b-917d-c7b84dcafbf6",
        "text": {
          "status": "generated",
          "div": "<div xmlns=\"http://www.w3.org/1999/xhtml\"><p><b>Generated Narrative with Details</b></p><p><b>id</b>: f168de08-0068-4e8b-917d-c7b84dcafbf6</p><p><b>status</b>: finished</p><p><b>type</b>: Medicines review <span style=\"background: LightGoldenRodYellow\">(Details : {SNOMED CT code '182836005' = 'Medication review', given as 'Review of medication'})</span></p><p><b>subject</b>: </p><p><b>period</b>: 12 Aug. 2019, 9:00:00 am --&gt; 12 Aug. 2019, 10:30:00 am</p></div>"
        },
        "status": "finished",
        "type": [
          {
            "coding": [
              {
                "system": "http://snomed.info/sct",
                "code": "182836005",
                "display": "Review of medication"
              }
            ],
            "text": "Medicines review"
          }
        ],
        "subject": {
          "identifier": {
            "type": {
              "coding": [
                {
                  "system": "http://hl7.org/fhir/v2/0203",
                  "code": "NI",
                  "display": "National unique individual identifier"
                }
              ]
            },
            "system": "http://ns.electronichealth.net.au/id/hi/ihi/1.0",
            "value": "8003608000228445"
          }
        },
        "period": {
          "start": "2019-08-12T09:00:00+10:00",
          "end": "2019-08-12T10:30:00+10:00"
        }
      }
    },
    {
      "fullUrl": "urn:uuid:9e146d18-06c8-4906-a8dd-09aa11941a72",
      "resource": {
        "resourceType": "AllergyIntolerance",
        "id": "9e146d18-06c8-4906-a8dd-09aa11941a72",
        "text": {
          "status": "generated",
          "div": "<div xmlns=\"http://www.w3.org/1999/xhtml\"><p><b>Generated Narrative with Details</b></p><p><b>id</b>: 9e146d18-06c8-4906-a8dd-09aa11941a72</p><p><b>clinicalStatus</b>: active</p><p><b>verificationStatus</b>: unconfirmed</p><p><b>code</b>: No known allergies <span style=\"background: LightGoldenRodYellow\">(Details : {SNOMED CT code '716186003' = 'No known allergy', given as 'No known allergy'})</span></p><p><b>patient</b>: </p></div>"
        },
        "clinicalStatus": "active",
        "verificationStatus": "unconfirmed",
        "code": {
          "coding": [
            {
              "system": "http://snomed.info/sct",
              "code": "716186003",
              "display": "No known allergy"
            }
          ],
          "text": "No known allergies"
        },
        "patient": {
          "identifier": {
            "type": {
              "coding": [
                {
                  "system": "http://hl7.org/fhir/v2/0203",
                  "code": "NI",
                  "display": "National unique individual identifier"
                }
              ]
            },
            "system": "http://ns.electronichealth.net.au/id/hi/ihi/1.0",
            "value": "8003608000228445"
          }
        }
      }
    },
    {
      "fullUrl": "urn:uuid:bea8b6f7-5de8-4247-ac07-b319ec6d0c24",
      "resource": {
        "resourceType": "List",
        "id": "bea8b6f7-5de8-4247-ac07-b319ec6d0c24",
        "language": "en-AU",
        "text": {
          "status": "generated",
          "div": "<div xmlns=\"http://www.w3.org/1999/xhtml\" xml:lang=\"en-AU\" lang=\"en-AU\"><p><b>Generated Narrative with Details</b></p><p><b>id</b>: bea8b6f7-5de8-4247-ac07-b319ec6d0c24</p><p><b>language</b>: en-AU</p><p><b>status</b>: current</p><p><b>mode</b>: snapshot</p><p><b>code</b>: Current Medicines <span style=\"background: LightGoldenRodYellow\">(Details : {https://healthterminologies.gov.au/fhir/CodeSystem/nctis-data-components-1 code '101.32009' = '101.32009', given as 'Current Medicines'})</span></p><p><b>subject</b>: </p><p><b>encounter</b>: <a href=\"#backboneelement_f168de08-0068-4e8b-917d-c7b84dcafbf6\">Generated Summary: unknown resource entry</a></p><p><b>date</b>: 2019-08-12</p><p><b>source</b>: </p><blockquote><p><b>entry</b></p><p><b>flag</b>: Unchanged <span style=\"background: LightGoldenRodYellow\">(Details : {http://hl7.org.au/fhir/CodeSystem/medicine-item-change code 'nochange' = 'Unchanged', given as 'Unchanged'})</span></p><p><b>item</b>: <a href=\"#backboneelement_69ae207f-b088-4585-a041-7196479c3fbe\">Generated Summary: unknown resource entry</a></p></blockquote><blockquote><p><b>entry</b></p><p><b>flag</b>: New <span style=\"background: LightGoldenRodYellow\">(Details : {http://hl7.org.au/fhir/CodeSystem/medicine-item-change code 'new' = 'New', given as 'New'})</span></p><p><b>item</b>: <a href=\"#backboneelement_c32b7d74-33ef-4ccc-85e2-442148071b01\">Generated Summary: unknown resource entry</a></p></blockquote><blockquote><p><b>entry</b></p><p><b>flag</b>: Amended <span style=\"background: LightGoldenRodYellow\">(Details : {http://hl7.org.au/fhir/CodeSystem/medicine-item-change code 'amended' = 'Amended', given as 'Amended'})</span></p><p><b>item</b>: <a href=\"#backboneelement_28c74aa8-b481-4ab2-80a2-bec1354b95a0\">Generated Summary: unknown resource entry</a></p></blockquote></div>"
        },
        "extension": [
          {
            "url": "http://hl7.org.au/fhir/StructureDefinition/author-role",
            "valueReference": {
              "identifier": {
                "type": {
                  "coding": [
                    {
                      "system": "http://hl7.org/fhir/v2/0203",
                      "code": "NPI",
                      "display": "National provider identifier"
                    }
                  ],
                  "text": "HPI-I"
                },
                "system": "http://ns.electronichealth.net.au/id/hi/hpii/1.0",
                "value": "8003619900041630"
              }
            }
          }
        ],
        "status": "current",
        "mode": "snapshot",
        "code": {
          "coding": [
            {
              "system": "https://healthterminologies.gov.au/fhir/CodeSystem/nctis-data-components-1",
              "code": "101.32009",
              "display": "Current Medicines"
            }
          ]
        },
        "subject": {
          "identifier": {
            "type": {
              "coding": [
                {
                  "system": "http://hl7.org/fhir/v2/0203",
                  "code": "NI",
                  "display": "National unique individual identifier"
                }
              ]
            },
            "system": "http://ns.electronichealth.net.au/id/hi/ihi/1.0",
            "value": "8003608000228445"
          }
        },
        "encounter": {
          "reference": "urn:uuid:f168de08-0068-4e8b-917d-c7b84dcafbf6"
        },
        "date": "2019-08-12",
        "source": {
          "identifier": {
            "type": {
              "coding": [
                {
                  "system": "http://hl7.org/fhir/v2/0203",
                  "code": "NPI",
                  "display": "National provider identifier"
                }
              ],
              "text": "HPI-I"
            },
            "system": "http://ns.electronichealth.net.au/id/hi/hpii/1.0",
            "value": "8003619900041630"
          }
        },
        "entry": [
          {
            "flag": {
              "coding": [
                {
                  "system": "http://hl7.org.au/fhir/CodeSystem/medicine-item-change",
                  "code": "nochange",
                  "display": "Unchanged"
                }
              ]
            },
            "item": {
              "reference": "urn:uuid:69ae207f-b088-4585-a041-7196479c3fbe"
            }
          },
          {
            "extension": [
              {
                "url": "http://hl7.org.au/fhir/StructureDefinition/change-description",
                "valueString": "Laxative for constipation."
              }
            ],
            "flag": {
              "coding": [
                {
                  "system": "http://hl7.org.au/fhir/CodeSystem/medicine-item-change",
                  "code": "new",
                  "display": "New"
                }
              ]
            },
            "item": {
              "reference": "urn:uuid:c32b7d74-33ef-4ccc-85e2-442148071b01"
            }
          },
          {
            "extension": [
              {
                "url": "http://hl7.org.au/fhir/StructureDefinition/change-description",
                "valueString": "Dose increased"
              }
            ],
            "flag": {
              "coding": [
                {
                  "system": "http://hl7.org.au/fhir/CodeSystem/medicine-item-change",
                  "code": "amended",
                  "display": "Amended"
                }
              ]
            },
            "item": {
              "reference": "urn:uuid:28c74aa8-b481-4ab2-80a2-bec1354b95a0"
            }
          }
        ]
      }
    },
    {
      "fullUrl": "urn:uuid:69ae207f-b088-4585-a041-7196479c3fbe",
      "resource": {
        "resourceType": "MedicationStatement",
        "id": "69ae207f-b088-4585-a041-7196479c3fbe",
        "text": {
          "status": "generated",
          "div": "<div xmlns=\"http://www.w3.org/1999/xhtml\"><p><b>Generated Narrative with Details</b></p><p><b>id</b>: 69ae207f-b088-4585-a041-7196479c3fbe</p><p><b>status</b>: active</p><p><b>medication</b>: <a href=\"#urnuuid01015470-52ce-4323-996b-f03f5f546f8f\">Generated Summary: unknown resource entry</a></p><p><b>subject</b>: </p><p><b>taken</b>: y</p><p><b>reasonCode</b>: To reduce high blood pressure; treat                             heart failure after a heart attack; prevent                             progresion of kidney failure; reduce the risk of                             heart attack, stroke and stenting <span style=\"background: LightGoldenRodYellow\">(Details )</span></p><p><b>dosage</b>: </p></div>"
        },
        "status": "active",
        "medicationReference": {
          "reference": "urn:uuid:01015470-52ce-4323-996b-f03f5f546f8f"
        },
        "subject": {
          "identifier": {
            "type": {
              "coding": [
                {
                  "system": "http://hl7.org/fhir/v2/0203",
                  "code": "NI",
                  "display": "National unique individual identifier"
                }
              ]
            },
            "system": "http://ns.electronichealth.net.au/id/hi/ihi/1.0",
            "value": "8003608000228445"
          }
        },
        "taken": "y",
        "reasonCode": [
          {
            "text": "To reduce high blood pressure; treat                             heart failure after a heart attack; prevent                             progresion of kidney failure; reduce the risk of                             heart attack, stroke and stenting"
          }
        ],
        "dosage": [
          {
            "text": "Take one tablet in the morning daily."
          }
        ]
      }
    },
    {
      "fullUrl": "urn:uuid:c32b7d74-33ef-4ccc-85e2-442148071b01",
      "resource": {
        "resourceType": "MedicationStatement",
        "id": "c32b7d74-33ef-4ccc-85e2-442148071b01",
        "text": {
          "status": "generated",
          "div": "<div xmlns=\"http://www.w3.org/1999/xhtml\"><p><b>Generated Narrative with Details</b></p><p><b>id</b>: c32b7d74-33ef-4ccc-85e2-442148071b01</p><p><b>status</b>: active</p><p><b>medication</b>: <a href=\"#urnuuid7cb67069-6a34-46c2-9ff5-76277fafc38e\">Generated Summary: unknown resource entry</a></p><p><b>subject</b>: </p><p><b>taken</b>: y</p><p><b>reasonCode</b>: Laxative for constipation, works by                         softening the stools and also assists by                         stimulating the gut to achieve bowel                         movements. <span style=\"background: LightGoldenRodYellow\">(Details : {SNOMED CT code '14760008' = 'Costiveness', given as 'Constipation'})</span></p><p><b>dosage</b>: </p></div>"
        },
        "status": "active",
        "medicationReference": {
          "reference": "urn:uuid:7cb67069-6a34-46c2-9ff5-76277fafc38e"
        },
        "subject": {
          "identifier": {
            "type": {
              "coding": [
                {
                  "system": "http://hl7.org/fhir/v2/0203",
                  "code": "NI",
                  "display": "National unique individual identifier"
                }
              ]
            },
            "system": "http://ns.electronichealth.net.au/id/hi/ihi/1.0",
            "value": "8003608000228445"
          }
        },
        "taken": "y",
        "reasonCode": [
          {
            "coding": [
              {
                "system": "http://snomed.info/sct",
                "code": "14760008",
                "display": "Constipation"
              }
            ],
            "text": "Laxative for constipation, works by                         softening the stools and also assists by                         stimulating the gut to achieve bowel                         movements."
          }
        ],
        "dosage": [
          {
            "text": "Take two tablets twice a day."
          }
        ]
      }
    },
    {
      "fullUrl": "urn:uuid:28c74aa8-b481-4ab2-80a2-bec1354b95a0",
      "resource": {
        "resourceType": "MedicationStatement",
        "id": "28c74aa8-b481-4ab2-80a2-bec1354b95a0",
        "text": {
          "status": "generated",
          "div": "<div xmlns=\"http://www.w3.org/1999/xhtml\"><p><b>Generated Narrative with Details</b></p><p><b>id</b>: 28c74aa8-b481-4ab2-80a2-bec1354b95a0</p><p><b>status</b>: active</p><p><b>medication</b>: <a href=\"#urnuuid9b79ca2a-023a-4076-b18d-0b2b5d99800d\">Generated Summary: unknown resource entry</a></p><p><b>subject</b>: </p><p><b>taken</b>: y</p><p><b>reasonCode</b>: For relief of moderate to severe                         pain <span style=\"background: LightGoldenRodYellow\">(Details : {SNOMED CT code '428346000' = 'Pain relief by medication', given as 'Pain relief by medication'})</span></p><p><b>dosage</b>: </p></div>"
        },
        "status": "active",
        "medicationReference": {
          "reference": "urn:uuid:9b79ca2a-023a-4076-b18d-0b2b5d99800d"
        },
        "subject": {
          "identifier": {
            "type": {
              "coding": [
                {
                  "system": "http://hl7.org/fhir/v2/0203",
                  "code": "NI",
                  "display": "National unique individual identifier"
                }
              ]
            },
            "system": "http://ns.electronichealth.net.au/id/hi/ihi/1.0",
            "value": "8003608000228445"
          }
        },
        "taken": "y",
        "reasonCode": [
          {
            "coding": [
              {
                "system": "http://snomed.info/sct",
                "code": "428346000",
                "display": "Pain relief by medication"
              }
            ],
            "text": "For relief of moderate to severe                         pain"
          }
        ],
        "dosage": [
          {
            "text": "Take one to two tablets every four hours when required."
          }
        ]
      }
    },
    {
      "fullUrl": "urn:uuid:01015470-52ce-4323-996b-f03f5f546f8f",
      "resource": {
        "resourceType": "Medication",
        "text": {
          "status": "generated",
          "div": "<div xmlns=\"http://www.w3.org/1999/xhtml\"><p><b>Generated Narrative with Details</b></p><p><b>code</b>: Tritace <span style=\"background: LightGoldenRodYellow\">(Details )</span></p></div>"
        },
        "extension": [
          {
            "url": "http://hl7.org.au/fhir/StructureDefinition/medication-brand-name",
            "valueString": "Tritace"
          }
        ],
        "code": {
          "text": "Tritace"
        }
      }
    },
    {
      "fullUrl": "urn:uuid:7cb67069-6a34-46c2-9ff5-76277fafc38e",
      "resource": {
        "resourceType": "Medication",
        "text": {
          "status": "generated",
          "div": "<div xmlns=\"http://www.w3.org/1999/xhtml\"><p><b>Generated Narrative with Details</b></p><p><b>code</b>: docusate sodium 50 mg + sennoside B                         8 mg tablet <span style=\"background: LightGoldenRodYellow\">(Details : {SNOMED CT code '33690011000036100' = 'docusate sodium 50 mg + sennoside B 8 mg tablet', given as 'docusate sodium 50 mg + sennoside B 8 mg tablet'})</span></p></div>"
        },
        "extension": [
          {
            "url": "http://hl7.org.au/fhir/StructureDefinition/medication-brand-name",
            "valueString": "Co-Senna"
          },
          {
            "url": "http://hl7.org.au/fhir/StructureDefinition/medication-generic-name",
            "valueString": "docusate sodium 50 mg + sennoside B 8 mg tablet"
          }
        ],
        "code": {
          "coding": [
            {
              "system": "http://snomed.info/sct",
              "code": "33690011000036100",
              "display": "docusate sodium 50 mg + sennoside B 8 mg tablet"
            }
          ],
          "text": "docusate sodium 50 mg + sennoside B                         8 mg tablet"
        }
      }
    },
    {
      "fullUrl": "urn:uuid:9b79ca2a-023a-4076-b18d-0b2b5d99800d",
      "resource": {
        "resourceType": "Medication",
        "text": {
          "status": "generated",
          "div": "<div xmlns=\"http://www.w3.org/1999/xhtml\"><p><b>Generated Narrative with Details</b></p><p><b>code</b>: Endone Oxycodone <span style=\"background: LightGoldenRodYellow\">(Details : {http://pbs.gov.au/code/item code '5195K' = '5195K', given as 'oxycodone hydrochloride 5 mg tablet, 20'}; {http://pbs.gov.au/code/item code '2622B' = '2622B', given as 'OXYCODONE'})</span></p></div>"
        },
        "extension": [
          {
            "url": "http://hl7.org.au/fhir/StructureDefinition/medication-brand-name",
            "valueString": "Endone"
          },
          {
            "url": "http://hl7.org.au/fhir/StructureDefinition/medication-generic-name",
            "valueString": "Oxycodone"
          }
        ],
        "code": {
          "coding": [
            {
              "system": "http://pbs.gov.au/code/item",
              "code": "5195K",
              "display": "oxycodone hydrochloride 5 mg tablet, 20"
            },
            {
              "system": "http://pbs.gov.au/code/item",
              "code": "2622B",
              "display": "OXYCODONE"
            }
          ],
          "text": "Endone Oxycodone"
        }
      }
    }
  ]
}