{
  "resourceType": "Composition",
  "id": "ab4537a4-20c9-4f8a-9867-5c435b7eaa28",
  "meta": {
    "versionId": "20190812v01",
    "profile": [
      "http://ns.electronichealth.net.au/ci/fhir/3.0/StructureDefinition/composition-sml-prac-1"
    ]
  },
  "language": "en-AU",
  "text": {
    "status": "additional",
    "div": "<div xmlns=\"http://www.w3.org/1999/xhtml\">\n            <p>TODO</p>\n        </div>"
  },
  "contained": [
    {
      "resourceType": "Encounter",
      "id": "33a17c81-f588-4ccb-9860-aa739cb8497d",
      "status": "finished",
      "type": [
        {
          "coding": [
            {
              "system": "http://snomed.info/sct",
              "code": "182836005",
              "display": "Review of medication"
            }
          ],
          "text": "Medicines review"
        }
      ],
      "subject": {
        "identifier": {
          "type": {
            "coding": [
              {
                "system": "http://hl7.org/fhir/v2/0203",
                "code": "NI",
                "display": "National unique individual identifier"
              }
            ]
          },
          "system": "http://ns.electronichealth.net.au/id/hi/ihi/1.0",
          "value": "8003608000228445"
        }
      },
      "period": {
        "start": "2019-08-12T09:00:00+10:00",
        "end": "2019-08-12T10:30:00+10:00"
      }
    },
    {
      "resourceType": "AllergyIntolerance",
      "id": "2b4a7d88-48f8-4ca3-b39b-5c0681363e72",
      "clinicalStatus": "active",
      "verificationStatus": "unconfirmed",
      "code": {
        "coding": [
          {
            "system": "http://snomed.info/sct",
            "code": "716186003",
            "display": "No known allergy"
          }
        ],
        "text": "No known allergies"
      },
      "patient": {
        "identifier": {
          "type": {
            "coding": [
              {
                "system": "http://hl7.org/fhir/v2/0203",
                "code": "NI",
                "display": "National unique individual identifier"
              }
            ]
          },
          "system": "http://ns.electronichealth.net.au/id/hi/ihi/1.0",
          "value": "8003608000228445"
        }
      }
    },
    {
      "resourceType": "List",
      "id": "618a2973-935d-4082-ba43-0a22487416a1",
      "language": "en-AU",
      "extension": [
        {
          "url": "http://hl7.org.au/fhir/StructureDefinition/author-role",
          "valueReference": {
            "identifier": {
              "type": {
                "coding": [
                  {
                    "system": "http://hl7.org/fhir/v2/0203",
                    "code": "NPI",
                    "display": "National provider identifier"
                  }
                ],
                "text": "HPI-I"
              },
              "system": "http://ns.electronichealth.net.au/id/hi/hpii/1.0",
              "value": "8003619900041630"
            }
          }
        }
      ],
      "status": "current",
      "mode": "snapshot",
      "code": {
        "coding": [
          {
            "system": "https://healthterminologies.gov.au/fhir/CodeSystem/nctis-data-components-1",
            "code": "101.32009",
            "display": "Current Medicines"
          }
        ]
      },
      "subject": {
        "identifier": {
          "type": {
            "coding": [
              {
                "system": "http://hl7.org/fhir/v2/0203",
                "code": "NI",
                "display": "National unique individual identifier"
              }
            ]
          },
          "system": "http://ns.electronichealth.net.au/id/hi/ihi/1.0",
          "value": "8003608000228445"
        }
      },
      "encounter": {
        "reference": "#33a17c81-f588-4ccb-9860-aa739cb8497d"
      },
      "date": "2019-08-12",
      "source": {
        "identifier": {
          "type": {
            "coding": [
              {
                "system": "http://hl7.org/fhir/v2/0203",
                "code": "NPI",
                "display": "National provider identifier"
              }
            ],
            "text": "HPI-I"
          },
          "system": "http://ns.electronichealth.net.au/id/hi/hpii/1.0",
          "value": "8003619900041630"
        }
      },
      "entry": [
        {
          "flag": {
            "coding": [
              {
                "system": "http://hl7.org.au/fhir/CodeSystem/medicine-item-change",
                "code": "nochange",
                "display": "Unchanged"
              }
            ]
          },
          "item": {
            "reference": "#2b751c3e-dc61-4ecd-8110-bce194d146ad"
          }
        },
        {
          "extension": [
            {
              "url": "http://hl7.org.au/fhir/StructureDefinition/change-description",
              "valueString": "Laxative for constipation."
            }
          ],
          "flag": {
            "coding": [
              {
                "system": "http://hl7.org.au/fhir/CodeSystem/medicine-item-change",
                "code": "new",
                "display": "New"
              }
            ]
          },
          "item": {
            "reference": "#b94a7467-b4fa-480f-a1af-4aa184fba577"
          }
        },
        {
          "extension": [
            {
              "url": "http://hl7.org.au/fhir/StructureDefinition/change-description",
              "valueString": "Dose increased"
            }
          ],
          "flag": {
            "coding": [
              {
                "system": "http://hl7.org.au/fhir/CodeSystem/medicine-item-change",
                "code": "amended",
                "display": "Amended"
              }
            ]
          },
          "item": {
            "reference": "#4e9a54b2-fda5-40f6-8137-30cddbb946cd"
          }
        }
      ]
    },
    {
      "resourceType": "MedicationStatement",
      "id": "2b751c3e-dc61-4ecd-8110-bce194d146ad",
      "status": "active",
      "medicationReference": {
        "reference": "#c1d71e4b-afd6-440a-b31a-128df572cc2b"
      },
      "subject": {
        "identifier": {
          "type": {
            "coding": [
              {
                "system": "http://hl7.org/fhir/v2/0203",
                "code": "NI",
                "display": "National unique individual identifier"
              }
            ]
          },
          "system": "http://ns.electronichealth.net.au/id/hi/ihi/1.0",
          "value": "8003608000228445"
        }
      },
      "taken": "y",
      "reasonCode": [
        {
          "text": "To reduce high blood pressure; treat                     heart failure after a heart attack; prevent                     progresion of kidney failure; reduce the risk of                     heart attack, stroke and stenting"
        }
      ],
      "dosage": [
        {
          "text": "Take one tablet in the morning daily."
        }
      ]
    },
    {
      "resourceType": "Medication",
      "id": "c1d71e4b-afd6-440a-b31a-128df572cc2b",
      "extension": [
        {
          "url": "http://hl7.org.au/fhir/StructureDefinition/medication-brand-name",
          "valueString": "Tritace"
        }
      ],
      "code": {
        "text": "Tritace"
      }
    },
    {
      "resourceType": "MedicationStatement",
      "id": "b94a7467-b4fa-480f-a1af-4aa184fba577",
      "status": "active",
      "medicationReference": {
        "reference": "#40dbab41-1e6b-4ab5-990b-865f0e736843"
      },
      "subject": {
        "identifier": {
          "type": {
            "coding": [
              {
                "system": "http://hl7.org/fhir/v2/0203",
                "code": "NI",
                "display": "National unique individual identifier"
              }
            ]
          },
          "system": "http://ns.electronichealth.net.au/id/hi/ihi/1.0",
          "value": "8003608000228445"
        }
      },
      "taken": "y",
      "reasonCode": [
        {
          "coding": [
            {
              "system": "http://snomed.info/sct",
              "code": "14760008",
              "display": "Constipation"
            }
          ],
          "text": "Laxative for constipation, works by                     softening the stools and also assists by                     stimulating the gut to achieve bowel                     movements."
        }
      ],
      "dosage": [
        {
          "text": "Take two tablets twice a day."
        }
      ]
    },
    {
      "resourceType": "Medication",
      "id": "40dbab41-1e6b-4ab5-990b-865f0e736843",
      "extension": [
        {
          "url": "http://hl7.org.au/fhir/StructureDefinition/medication-brand-name",
          "valueString": "Co-Senna"
        },
        {
          "url": "http://hl7.org.au/fhir/StructureDefinition/medication-generic-name",
          "valueString": "docusate sodium 50 mg + sennoside B 8 mg tablet"
        }
      ],
      "code": {
        "coding": [
          {
            "system": "http://snomed.info/sct",
            "code": "33690011000036100",
            "display": "docusate sodium 50 mg + sennoside B 8 mg tablet"
          }
        ],
        "text": "docusate sodium 50 mg + sennoside B                     8 mg tablet"
      }
    },
    {
      "resourceType": "MedicationStatement",
      "id": "4e9a54b2-fda5-40f6-8137-30cddbb946cd",
      "status": "active",
      "medicationReference": {
        "reference": "#22f154ff-5cee-4f35-8421-42a1aebfbcd5"
      },
      "subject": {
        "identifier": {
          "type": {
            "coding": [
              {
                "system": "http://hl7.org/fhir/v2/0203",
                "code": "NI",
                "display": "National unique individual identifier"
              }
            ]
          },
          "system": "http://ns.electronichealth.net.au/id/hi/ihi/1.0",
          "value": "8003608000228445"
        }
      },
      "taken": "y",
      "reasonCode": [
        {
          "coding": [
            {
              "system": "http://snomed.info/sct",
              "code": "428346000",
              "display": "Pain relief by medication"
            }
          ],
          "text": "For relief of moderate to severe                     pain"
        }
      ],
      "dosage": [
        {
          "text": "Take one to two tablets every four hours when required."
        }
      ]
    },
    {
      "resourceType": "Medication",
      "id": "22f154ff-5cee-4f35-8421-42a1aebfbcd5",
      "extension": [
        {
          "url": "http://hl7.org.au/fhir/StructureDefinition/medication-brand-name",
          "valueString": "Endone"
        },
        {
          "url": "http://hl7.org.au/fhir/StructureDefinition/medication-generic-name",
          "valueString": "Oxycodone"
        }
      ],
      "code": {
        "coding": [
          {
            "system": "http://pbs.gov.au/code/item",
            "code": "5195K",
            "display": "oxycodone hydrochloride 5 mg tablet, 20"
          },
          {
            "system": "http://pbs.gov.au/code/item",
            "code": "2622B",
            "display": "OXYCODONE"
          }
        ],
        "text": "Endone Oxycodone"
      }
    }
  ],
  "extension": [
    {
      "url": "http://hl7.org.au/fhir/StructureDefinition/composition-author-role",
      "valueReference": {
        "identifier": {
          "type": {
            "coding": [
              {
                "system": "http://hl7.org/fhir/v2/0203",
                "code": "NPI",
                "display": "National provider identifier"
              }
            ],
            "text": "HPI-I"
          },
          "system": "http://ns.electronichealth.net.au/id/hi/hpii/1.0",
          "value": "8003619900041630"
        }
      }
    }
  ],
  "status": "final",
  "type": {
    "coding": [
      {
        "system": "http://loinc.org",
        "code": "56445-0",
        "display": "Medication summary"
      }
    ]
  },
  "subject": {
    "identifier": {
      "type": {
        "coding": [
          {
            "system": "http://hl7.org/fhir/v2/0203",
            "code": "NI",
            "display": "National unique individual identifier"
          }
        ]
      },
      "system": "http://ns.electronichealth.net.au/id/hi/ihi/1.0",
      "value": "8003608000228445"
    }
  },
  "encounter": {
    "reference": "#33a17c81-f588-4ccb-9860-aa739cb8497d"
  },
  "date": "2019-08-12",
  "author": [
    {
      "identifier": {
        "type": {
          "coding": [
            {
              "system": "http://hl7.org/fhir/v2/0203",
              "code": "NPI",
              "display": "National provider identifier"
            }
          ],
          "text": "HPI-I"
        },
        "system": "http://ns.electronichealth.net.au/id/hi/hpii/1.0",
        "value": "8003619900041630"
      }
    }
  ],
  "title": "Shared Medicines List",
  "attester": [
    {
      "mode": [
        "legal"
      ],
      "time": "2019-09-02T10:00:15+10:00",
      "party": {
        "identifier": {
          "type": {
            "coding": [
              {
                "system": "http://hl7.org/fhir/v2/0203",
                "code": "NPI",
                "display": "National provider identifier"
              }
            ],
            "text": "HPI-I"
          },
          "system": "http://ns.electronichealth.net.au/id/hi/hpii/1.0",
          "value": "8003619900041630"
        }
      }
    }
  ],
  "custodian": {
    "identifier": {
      "type": {
        "coding": [
          {
            "system": "http://hl7.org.au/fhir/v2/0203",
            "code": "NOI"
          }
        ],
        "text": "HPI-O"
      },
      "system": "http://ns.electronichealth.net.au/id/hi/hpio/1.0",
      "value": "8003623233366573"
    }
  },
  "section": [
    {
      "title": "Allergies and Intolerances",
      "code": {
        "coding": [
          {
            "system": "http://loinc.org",
            "code": "48765-2",
            "display": "Allergies &or adverse reactions"
          }
        ]
      },
      "text": {
        "status": "additional",
        "div": "<div xmlns=\"http://www.w3.org/1999/xhtml\" lang=\"en-AU\">\n                <p>No known allergies</p>\n            </div>"
      },
      "entry": [
        {
          "reference": "#2b4a7d88-48f8-4ca3-b39b-5c0681363e72"
        }
      ]
    },
    {
      "title": "Current Medicines",
      "code": {
        "coding": [
          {
            "system": "https://healthterminologies.gov.au/fhir/CodeSystem/nctis-data-components-1",
            "code": "101.32009",
            "display": "Current Medicines"
          }
        ]
      },
      "text": {
        "status": "additional",
        "div": "<div xmlns=\"http://www.w3.org/1999/xhtml\" lang=\"en-AU\">\n                <table border=\"1\">\n                    <caption>Current Medicines</caption>\n                    <thead>\n                        <tr>\n                            <th>Medicine</th>\n                            <th>Medicine brand name</th>\n                            <th>Directions</th>\n                            <th>Purpose</th>\n                            <th>Status</th>\n                            <th>Status reason</th>\n                        </tr>\n                    </thead>\n                    <tbody>\n                        <tr>\n                            <td/>\n                            <td>Tritace</td>\n                            <td>Take one tablet in the morning daily.</td>\n                            <td>To reduce high blood pressure; treat heart failure after a heart attack; prevent progresion of kidney failure; reduce the risk of heart attack, stroke and stenting</td>\n                            <td>Unchanged</td>\n                            <td/>\n                        </tr>\n                        <tr>\n                            <td>docusate sodium 50 mg + sennoside B 8 mg tablet</td>\n                            <td>Co-Senna</td>\n                            <td>Take two tablets twice a day.</td>\n                            <td>Laxative for constipation, works by softening the stools and also assists by stimulating the gut to achieve bowel movements.</td>\n                            <td>New</td>\n                            <td>Laxative for constipation.</td>\n                        </tr>\n                        <tr>\n                            <td>Oxycodone</td>\n                            <td>Endone</td>\n                            <td>Take one to two tablets every four hours when required.</td>\n                            <td>For relief of moderate to severe pain.</td>\n                            <td>Amended</td>\n                            <td>Dose increased</td>\n                        </tr>\n                    </tbody>\n                </table>\n            </div>"
      },
      "entry": [
        {
          "reference": "#618a2973-935d-4082-ba43-0a22487416a1"
        }
      ]
    }
  ]
}