{
  "resourceType": "List",
  "id": "a04e9676-5c38-4c56-8d24-c600e192613e",
  "meta": {
    "versionId": "1",
    "profile": [
      "http://ns.electronichealth.net.au/ci/fhir/3.0/StructureDefinition/list-sml-pracchanges-1"
    ]
  },
  "language": "en-AU",
  "text": {
    "status": "additional",
    "div": "<div xmlns=\"http://www.w3.org/1999/xhtml\" lang=\"en-AU\">\n            <table border=\"1\">\n                <thead>\n                    <tr>\n                        <th>Medicine name</th>\n                        <th>Other names</th>\n                        <th>Number to take/Directions</th>\n                        <th>Purpose</th>\n                        <th>Medicine change</th>\n                        <th>Special instructions</th>\n                    </tr>\n                </thead>\n                <tbody>\n                    <tr>\n                        <td>RAMIPRIL(TAB) 2.5 mg</td>\n                        <td>Tritace</td>\n                        <td>Take one in the morning</td>\n                        <td>To reduce high blood pressure; treat heart failure after a heart attack; prevent progression of kidney failure; reduce the risk of heart attack; stroke and stenting</td>\n                        <td/>\n                        <td>If you feel light-headed, dizzy or faint, get up slowly when getting our of bed. Make sure you drink enough water during excercise and hot weather when you are taking this medicine, especially if you sweat a lot. If you have excessive vomitting and or diarhoea while taking this medicine tell your doctor. May cause headache or unusal taste. Do not take potassium supplements while you are taking this medicine unless your doctor tells you to. If you develop signs of swelling of the lips or tongue, a dry cough or a rash see your doctor.</td>\n                    </tr>\n                    <tr>\n                        <td>ATORVASTATIN(TAB) 80 mg</td>\n                        <td>Lipitor</td>\n                        <td>Take 1 in the evening</td>\n                        <td>To lower cholestrol levels in the blood</td>\n                        <td/>\n                        <td>Seek medical advice promptly if your urine is dark (brown) or if you have any unexplained muscle pain, tenderness or weakness. Grapefruit juice should be avoided as it may increase the amount of this medicine in your bloodstream and could increase the chances of side effects occuring.</td>\n                    </tr>\n                    <tr>\n                        <td>DOCUSATE SENNA(TAB) 50 mg</td>\n                        <td>Coloxyl and Senna</td>\n                        <td>Take two tablets in the morning and in the evening</td>\n                        <td>Laxative for constipation, works by softening the stools and also assists by stimulating the gut to achieven bowel movements.</td>\n                        <td>New medicine</td>\n                        <td>Take with a glass of fluid. May take 2-3 days for maximum effect. Do not take with laxatives containing liquid paraffin. Abdominal discomfort, nausea and rash may occur.</td>\n                    </tr>\n                </tbody>\n            </table>\n        </div>"
  },
  "contained": [
    {
      "resourceType": "Patient",
      "id": "c7688ecf-5a6c-4a2f-ae2c-88a347278656",
      "identifier": [
        {
          "type": {
            "coding": [
              {
                "system": "http://hl7.org/fhir/v2/0203",
                "code": "MR"
              }
            ]
          },
          "system": "urn:oid:1.2.36.1.2001.1005.29.8003621566684455",
          "value": "542181",
          "assigner": {
            "display": "Croydon GP Centre"
          }
        }
      ],
      "name": [
        {
          "text": "Bert Gainey"
        }
      ],
      "address": [
        {
          "line": [
            "1 Caboolture Street"
          ],
          "city": "Caboolture",
          "state": "QLD",
          "postalCode": "4510",
          "country": "AU"
        }
      ]
    },
    {
      "resourceType": "Practitioner",
      "id": "4e2ed22a-95c8-4403-87fa-9a6a171ddc8b",
      "meta": {
        "profile": [
          "http://ns.electronichealth.net.au/ci/fhir/3.0/StructureDefinition/practitioner-ident-1"
        ]
      },
      "identifier": [
        {
          "type": {
            "coding": [
              {
                "system": "http://hl7.org/fhir/v2/0203",
                "code": "EI"
              }
            ]
          },
          "system": "http://ns.electronichealth.net.au/id/abn-scoped/service-provider-individual/1.0/51824994455",
          "value": "north27",
          "assigner": {
            "display": "Ascot Vale Family Medical Centre"
          }
        }
      ],
      "name": [
        {
          "family": "Black",
          "given": [
            "North"
          ],
          "suffix": [
            "M.D."
          ]
        }
      ]
    },
    {
      "resourceType": "PractitionerRole",
      "id": "2be6504a-160a-4cb0-ac4c-4b5aa503085d",
      "meta": {
        "profile": [
          "http://ns.electronichealth.net.au/ci/fhir/3.0/StructureDefinition/practitionerrole-withpractitionerident-1"
        ]
      },
      "identifier": [
        {
          "type": {
            "coding": [
              {
                "system": "http://hl7.org/fhir/v2/0203",
                "code": "EI"
              }
            ],
            "text": "Employee Number"
          },
          "system": "http://ns.electronichealth.net.au/id/abn-scoped/service-provider-individual/1.0/51824994455",
          "value": "north27",
          "assigner": {
            "display": "Ascot Vale Family Medical Centre"
          }
        }
      ],
      "practitioner": {
        "reference": "#4e2ed22a-95c8-4403-87fa-9a6a171ddc8b"
      },
      "code": [
        {
          "text": "General Practitioner"
        }
      ]
    },
    {
      "resourceType": "MedicationStatement",
      "id": "af3be636-c156-4172-8cbb-27856d5fc650",
      "meta": {
        "profile": [
          "http://ns.electronichealth.net.au/ci/fhir/3.0/StructureDefinition/medicationstatement-detailed-1"
        ]
      },
      "status": "active",
      "medicationReference": {
        "reference": "#a0f3f01a-be9f-48f6-ae6f-ce5179768889"
      },
      "subject": {
        "reference": "#c7688ecf-5a6c-4a2f-ae2c-88a347278656"
      },
      "taken": "y",
      "reasonCode": [
        {
          "text": "To reduce elevated blood pressure; for                     the prevention of angina; to treat or prevent                     heart attack; for the treatment of heart failure;                     to prevent migranes"
        }
      ],
      "note": [
        {
          "text": "If you feel light-headed, dizzy or faint, get up                     slowly when getting our of bed. Make sure you drink                     enough water during excercise and hot weather when                     you are taking this medicine, especially if you                     sweat a lot. If you have excessive vomitting and or                     diarhoea while taking this medicine tell your                     doctor. May cause headache or unusal taste. Do not                     take potassium supplements while you are taking this                     medicine unless your doctor tells you to. If you                     develop signs of swelling of the lips or tongue, a                     dry cough or a rash see your doctor."
        }
      ],
      "dosage": [
        {
          "text": "Take one in the morning"
        }
      ]
    },
    {
      "resourceType": "Medication",
      "id": "a0f3f01a-be9f-48f6-ae6f-ce5179768889",
      "meta": {
        "profile": [
          "http://ns.electronichealth.net.au/ci/fhir/3.0/StructureDefinition/medication-dh-base-1"
        ]
      },
      "code": {
        "text": "RAMIPRIL(TAB) 2.5 mg, Tritace"
      }
    },
    {
      "resourceType": "MedicationStatement",
      "id": "a8bd298d-40d0-4bd9-946b-6688f5f2f443",
      "meta": {
        "profile": [
          "http://ns.electronichealth.net.au/ci/fhir/3.0/StructureDefinition/medicationstatement-detailed-1"
        ]
      },
      "status": "active",
      "medicationReference": {
        "reference": "#5c13e76a-22da-4e67-a69a-0d3be5cd5495"
      },
      "subject": {
        "reference": "#c7688ecf-5a6c-4a2f-ae2c-88a347278656"
      },
      "taken": "y",
      "reasonCode": [
        {
          "text": "To lower cholestrol levels in the blood"
        }
      ],
      "note": [
        {
          "text": "Seek medical advice promptly if your urine is dark                     (brown) or if you have any unexplained muscle pain,                     tenderness or weakness. Grapefruit juice should be                     avoided as it may increase the amount of this                     medicine in your bloodstream and could increase the                     chances of side effects occuring."
        }
      ],
      "dosage": [
        {
          "text": "Take 1 in the evening"
        }
      ]
    },
    {
      "resourceType": "Medication",
      "id": "5c13e76a-22da-4e67-a69a-0d3be5cd5495",
      "meta": {
        "profile": [
          "http://ns.electronichealth.net.au/ci/fhir/3.0/StructureDefinition/medication-dh-base-1"
        ]
      },
      "code": {
        "coding": [
          {
            "system": "http://snomed.info/sct",
            "code": "23165011000036107",
            "display": "atorvastatin 80 mg tablet"
          }
        ],
        "text": "ATORVASTATIN(TAB) 80 mg, Lipitor"
      }
    },
    {
      "resourceType": "MedicationStatement",
      "id": "e558d94a-e4ba-4095-8d2e-74b9df14a9d1",
      "meta": {
        "profile": [
          "http://ns.electronichealth.net.au/ci/fhir/3.0/StructureDefinition/medicationstatement-detailed-1"
        ]
      },
      "status": "active",
      "medicationReference": {
        "reference": "#44df5dcf-a870-4a49-980e-b295629c3e71"
      },
      "subject": {
        "reference": "#c7688ecf-5a6c-4a2f-ae2c-88a347278656"
      },
      "taken": "y",
      "reasonCode": [
        {
          "text": "Laxative for constipation, works by                     softening the stools and also assists by                     stimulating the gut to achieven bowel                     movements."
        }
      ],
      "note": [
        {
          "text": "Take with a glass of fluid. May take 2-3 days for                     maximum effect. Do not take with laxatives                     containing liquid paraffin. Abdominal discomfort,                     nausea and rash may."
        }
      ],
      "dosage": [
        {
          "text": "Take two tablets in the morning and in the evening"
        }
      ]
    },
    {
      "resourceType": "Medication",
      "id": "44df5dcf-a870-4a49-980e-b295629c3e71",
      "meta": {
        "profile": [
          "http://ns.electronichealth.net.au/ci/fhir/3.0/StructureDefinition/medication-dh-base-1"
        ]
      },
      "code": {
        "coding": [
          {
            "system": "http://snomed.info/sct",
            "code": "23173011000036104",
            "display": "aspirin 100 mg tablet"
          }
        ],
        "text": "DOCUSATE SENNA(TAB) 50 mg, Coloxyl and Senna"
      }
    }
  ],
  "extension": [
    {
      "url": "http://hl7.org.au/fhir/StructureDefinition/author-role",
      "valueReference": {
        "reference": "#2be6504a-160a-4cb0-ac4c-4b5aa503085d"
      }
    }
  ],
  "status": "current",
  "mode": "snapshot",
  "title": "Ceased medicines list",
  "code": {
    "coding": [
      {
        "system": "https://healthterminologies.gov.au/fhir/CodeSystem/nctis-data-components-1",
        "code": "101.32027",
        "display": "Ceased Medicines"
      }
    ]
  },
  "subject": {
    "reference": "#c7688ecf-5a6c-4a2f-ae2c-88a347278656"
  },
  "date": "2019-09-02T10:00:15+10:00",
  "source": {
    "reference": "#4e2ed22a-95c8-4403-87fa-9a6a171ddc8b"
  },
  "entry": [
    {
      "flag": {
        "coding": [
          {
            "system": "http://hl7.org.au/fhir/CodeSystem/medicine-item-change",
            "code": "nochange",
            "display": "Unchanged"
          }
        ]
      },
      "item": {
        "reference": "#af3be636-c156-4172-8cbb-27856d5fc650"
      }
    },
    {
      "flag": {
        "coding": [
          {
            "system": "http://hl7.org.au/fhir/CodeSystem/medicine-item-change",
            "code": "nochange",
            "display": "Unchanged"
          }
        ]
      },
      "item": {
        "reference": "#a8bd298d-40d0-4bd9-946b-6688f5f2f443"
      }
    },
    {
      "extension": [
        {
          "url": "http://hl7.org.au/fhir/StructureDefinition/change-description",
          "valueString": "Infection"
        }
      ],
      "flag": {
        "coding": [
          {
            "system": "http://hl7.org.au/fhir/CodeSystem/medicine-item-change",
            "code": "new",
            "display": "New"
          }
        ],
        "text": "New medicine"
      },
      "item": {
        "reference": "#e558d94a-e4ba-4095-8d2e-74b9df14a9d1"
      }
    }
  ]
}