{
  "resourceType": "List",
  "id": "a04e9676-5c38-4c56-8d24-c600e192613e",
  "meta": {
    "versionId": "4",
    "profile": [
      "http://ns.electronichealth.net.au/ci/fhir/3.0/StructureDefinition/list-sml-pracchanges-1"
    ]
  },
  "language": "en-AU",
  "text": {
    "status": "additional",
    "div": "<div xmlns=\"http://www.w3.org/1999/xhtml\" lang=\"en-AU\">\n\n            <h1 style=\"background-color:#0066cc;text-align:center;padding:5px;color:#F0FFFF;font-family:Verdana\">Ceased Medicines List</h1>\n\n            <h2 style=\"color:#0066cc;font-family:Verdana\">for Bert GAINEY, 2 Sep 2019</h2>\n\n            <table cellpadding=\"20\" style=\"border-collapse:collapse;border-spacing:0;width:100%;border:1px solid #A9A9A9;margin-bottom:25px;\">\n                <col width=\"8%\"/>\n                <col width=\"20%\"/>\n                <col width=\"12%\"/>\n                <col width=\"25%\"/>\n                <col width=\"8%\"/>\n                <col width=\"27%\"/>\n                <tbody>\n                    <tr>\n                        <td style=\"padding:8px;vertical-align:top;font-family:Verdana\">Name</td>\n                        <td style=\"padding:8px;vertical-align:top;font-family:Verdana\"><b>Bert Gainey</b></td>\n                        <td style=\"padding:8px;vertical-align:top;font-family:Verdana\">Record Number</td>\n                        <td style=\"padding:8px;vertical-align:top;font-family:Verdana\"><b>542181</b> (Croydon GP Centre)</td>\n                        <td style=\"padding:8px;vertical-align:top;font-family:Verdana\">Address</td>\n                        <td style=\"padding:8px;vertical-align:top;font-family:Verdana\"><b>1 Caboolture Street, Caboolture, QLD, 4510</b></td>\n                    </tr>\n                    <tr>\n                        <td style=\"padding:8px;vertical-align:top;font-family:Verdana\">Author</td>\n                        <td style=\"padding:8px;vertical-align:top;font-family:Verdana\"><b>North Black M.D.</b></td>\n                        <td style=\"padding:8px;vertical-align:top;font-family:Verdana\">Role</td>\n                        <td style=\"padding:8px;vertical-align:top;font-family:Verdana\"><b>General Practitioner</b></td>\n                        <td style=\"padding:8px;vertical-align:top;font-family:Verdana\">ID</td>\n                        <td style=\"padding:8px;vertical-align:top;font-family:Verdana\"><b>north27</b> (Ascot Vale Family Medical Centre)</td>\n                    </tr>\n                    <tr>\n                        <td style=\"padding:8px;vertical-align:top;font-family:Verdana\">Date</td>\n                        <td style=\"padding:8px;vertical-align:top;font-family:Verdana\"><b>2 Sep 2019 10:00:15AM</b></td>\n                        <td style=\"padding:8px;vertical-align:top;font-family:Verdana\">Version</td>\n                        <td style=\"padding:8px;vertical-align:top;font-family:Verdana\"><b>4</b></td>\n                        <td style=\"padding:8px;vertical-align:top;font-family:Verdana\"/>\n                        <td style=\"padding:8px;vertical-align:top;font-family:Verdana\"/>\n                    </tr>\n                </tbody>\n            </table>\n\n            <table style=\"border-collapse:collapse;border-spacing:1;width:100%;border:1px solid #A9A9A9;padding:8px;font-family:Verdana;margin-bottom:25px;\">\n                <tbody>\n                    <tr>\n                        <td colspan=\"6\" style=\"background-color:#80bfff;color:#F0FFFF;padding:8px;font-size:20px;text-align:left;font-family:Verdana\">Ceased Medicines</td>\n                    </tr>\n                    <tr style=\"background-color:#cce6ff;border:1px solid #A9A9A9;padding:8px;vertical-align:top;font-family:Verdana\">\n                        <th style=\"border:1px solid #A9A9A9;padding:8px;vertical-align:top;font-family:Verdana\">Status</th>\n                        <th style=\"border:1px solid #A9A9A9;padding:8px;vertical-align:top;font-family:Verdana\">Medicine name</th>\n                        <th style=\"border:1px solid #A9A9A9;padding:8px;vertical-align:top;font-family:Verdana\">Other names</th>\n                        <th style=\"border:1px solid #A9A9A9;padding:8px;vertical-align:top;font-family:Verdana\">Number to take/Directions</th>\n                        <th style=\"border:1px solid #A9A9A9;padding:8px;vertical-align:top;font-family:Verdana\">Purpose</th>\n                        <th style=\"border:1px solid #A9A9A9;padding:8px;vertical-align:top;font-family:Verdana\">Special instructions</th>\n                    </tr>\n                    <tr style=\"border:1px solid #A9A9A9;padding:8px;font-family:Verdana\">\n                        <td style=\"border:1px solid #A9A9A9;padding:8px;vertical-align:top;font-family:Verdana\">Unchanged</td>\n                        <td style=\"border:1px solid #A9A9A9;padding:8px;vertical-align:top;font-family:Verdana\">RAMIPRIL(TAB) 2.5 mg</td>\n                        <td style=\"border:1px solid #A9A9A9;padding:8px;vertical-align:top;font-family:Verdana\">Tritace</td>\n                        <td style=\"border:1px solid #A9A9A9;padding:8px;vertical-align:top;font-family:Verdana\">Take one in the morning</td>\n                        <td style=\"border:1px solid #A9A9A9;padding:8px;vertical-align:top;font-family:Verdana\">To reduce high blood pressure; treat heart failure after a heart attack; prevent progression of kidney failure; reduce the risk of heart attack; stroke and stenting</td>\n                        <td style=\"border:1px solid #A9A9A9;padding:8px;vertical-align:top;font-family:Verdana\">If you feel light-headed, dizzy or faint, get up slowly when getting our of bed. Make sure you drink enough water during excercise and hot weather when you are taking this medicine, especially if you sweat a lot. If you have excessive vomitting and or diarhoea while taking this medicine tell your doctor. May cause headache or unusal taste. Do not take potassium supplements while you are taking this medicine unless your doctor tells you to. If you develop signs of swelling of the lips or tongue, a dry cough or a rash see your doctor.</td>\n                    </tr>\n                    <tr style=\"border:1px solid #A9A9A9;padding:8px;vertical-align:top;font-family:Verdana\">\n                        <td style=\"border:1px solid #A9A9A9;padding:8px;vertical-align:top;font-family:Verdana\">Ceased</td>\n                        <td style=\"border:1px solid #A9A9A9;padding:8px;vertical-align:top;font-family:Verdana\">ATORVASTATIN(TAB) 80 mg</td>\n                        <td style=\"border:1px solid #A9A9A9;padding:8px;vertical-align:top;font-family:Verdana\">Lipitor</td>\n                        <td style=\"border:1px solid #A9A9A9;padding:8px;vertical-align:top;font-family:Verdana\">Take 1 in the evening</td>\n                        <td style=\"border:1px solid #A9A9A9;padding:8px;vertical-align:top;font-family:Verdana\">To lower cholestrol levels in the blood</td>\n                        <td style=\"border:1px solid #A9A9A9;padding:8px;vertical-align:top;font-family:Verdana\">Seek medical advice promptly if your urine is dark (brown) or if you have any unexplained muscle pain, tenderness or weakness. Grapefruit juice should be avoided as it may increase the amount of this medicine in your bloodstream and could increase the chances of side effects occuring.</td>\n                    </tr>\n                    <tr style=\"border:1px solid #A9A9A9;padding:8px;vertical-align:top;font-family:Verdana\">\n                        <td style=\"border:1px solid #A9A9A9;padding:8px;vertical-align:top;font-family:Verdana\">Ceased</td>\n                        <td style=\"border:1px solid #A9A9A9;padding:8px;vertical-align:top;font-family:Verdana\">DOCUSATE SENNA(TAB) 50 mg</td>\n                        <td style=\"border:1px solid #A9A9A9;padding:8px;vertical-align:top;font-family:Verdana\"/>\n                        <td style=\"border:1px solid #A9A9A9;padding:8px;vertical-align:top;font-family:Verdana\">Take two tablets in the morning and in the evening</td>\n                        <td style=\"border:1px solid #A9A9A9;padding:8px;vertical-align:top;font-family:Verdana\">Laxative for constipation, works by softening the stools and also assists by stimulating the gut to achieve bowel movements.</td>\n                        <td style=\"border:1px solid #A9A9A9;padding:8px;vertical-align:top;font-family:Verdana\">Take with a glass of fluid. May take 2-3 days for maximum effect. Do not take with laxatives containing liquid paraffin. Abdominal discomfort, nausea and rash may occur.</td>\n                    </tr>\n                </tbody>\n            </table>\n\n        </div>"
  },
  "contained": [
    {
      "resourceType": "Patient",
      "id": "c7688ecf-5a6c-4a2f-ae2c-88a347278656",
      "identifier": [
        {
          "type": {
            "coding": [
              {
                "system": "http://hl7.org/fhir/v2/0203",
                "code": "MR"
              }
            ]
          },
          "system": "http://www.croydongpcentre.example.com/patients",
          "value": "542181",
          "assigner": {
            "display": "Croydon GP Centre"
          }
        }
      ],
      "name": [
        {
          "text": "Bert Gainey"
        }
      ],
      "address": [
        {
          "line": [
            "1 Caboolture Street"
          ],
          "city": "Caboolture",
          "state": "QLD",
          "postalCode": "4510",
          "country": "AU"
        }
      ]
    },
    {
      "resourceType": "Practitioner",
      "id": "4e2ed22a-95c8-4403-87fa-9a6a171ddc8b",
      "identifier": [
        {
          "type": {
            "coding": [
              {
                "system": "http://terminology.hl7.org/CodeSystem/v2-0203",
                "code": "EI"
              }
            ]
          },
          "system": "http://ns.electronichealth.net.au/id/abn-scoped/service-provider-individual/1.0/51824994455",
          "value": "north27",
          "assigner": {
            "display": "Ascot Vale Family Medical Centre"
          }
        }
      ],
      "name": [
        {
          "family": "Black",
          "given": [
            "North"
          ],
          "suffix": [
            "M.D."
          ]
        }
      ]
    },
    {
      "resourceType": "PractitionerRole",
      "id": "2be6504a-160a-4cb0-ac4c-4b5aa503085d",
      "practitioner": {
        "reference": "#4e2ed22a-95c8-4403-87fa-9a6a171ddc8b"
      },
      "code": [
        {
          "text": "General Practitioner"
        }
      ]
    },
    {
      "resourceType": "MedicationStatement",
      "id": "af3be636-c156-4172-8cbb-27856d5fc650",
      "status": "completed",
      "medicationReference": {
        "reference": "#a0f3f01a-be9f-48f6-ae6f-ce5179768889"
      },
      "subject": {
        "reference": "#c7688ecf-5a6c-4a2f-ae2c-88a347278656"
      },
      "taken": "y",
      "reasonCode": [
        {
          "text": "To reduce elevated blood pressure; for                     the prevention of angina; to treat or prevent                     heart attack; for the treatment of heart failure;                     to prevent migranes"
        }
      ],
      "note": [
        {
          "text": "If you feel light-headed, dizzy or faint, get up                     slowly when getting our of bed. Make sure you drink                     enough water during excercise and hot weather when                     you are taking this medicine, especially if you                     sweat a lot. If you have excessive vomitting and or                     diarhoea while taking this medicine tell your                     doctor. May cause headache or unusal taste. Do not                     take potassium supplements while you are taking this                     medicine unless your doctor tells you to. If you                     develop signs of swelling of the lips or tongue, a                     dry cough or a rash see your doctor."
        }
      ],
      "dosage": [
        {
          "text": "Take one in the morning"
        }
      ]
    },
    {
      "resourceType": "Medication",
      "id": "a0f3f01a-be9f-48f6-ae6f-ce5179768889",
      "code": {
        "text": "RAMIPRIL(TAB) 2.5 mg, Tritace"
      }
    },
    {
      "resourceType": "MedicationStatement",
      "id": "a8bd298d-40d0-4bd9-946b-6688f5f2f443",
      "status": "completed",
      "medicationReference": {
        "reference": "#5c13e76a-22da-4e67-a69a-0d3be5cd5495"
      },
      "subject": {
        "reference": "#c7688ecf-5a6c-4a2f-ae2c-88a347278656"
      },
      "taken": "y",
      "reasonCode": [
        {
          "text": "To lower cholestrol levels in the blood"
        }
      ],
      "note": [
        {
          "text": "Seek medical advice promptly if your urine is dark                     (brown) or if you have any unexplained muscle pain,                     tenderness or weakness. Grapefruit juice should be                     avoided as it may increase the amount of this                     medicine in your bloodstream and could increase the                     chances of side effects occuring."
        }
      ],
      "dosage": [
        {
          "text": "Take 1 in the evening"
        }
      ]
    },
    {
      "resourceType": "Medication",
      "id": "5c13e76a-22da-4e67-a69a-0d3be5cd5495",
      "code": {
        "text": "ATORVASTATIN(TAB) 80 mg, Lipitor"
      }
    },
    {
      "resourceType": "MedicationStatement",
      "id": "e558d94a-e4ba-4095-8d2e-74b9df14a9d1",
      "status": "completed",
      "medicationReference": {
        "reference": "#44df5dcf-a870-4a49-980e-b295629c3e71"
      },
      "subject": {
        "reference": "#c7688ecf-5a6c-4a2f-ae2c-88a347278656"
      },
      "taken": "y",
      "reasonCode": [
        {
          "text": "Laxative for constipation, works by                     softening the stools and also assists by                     stimulating the gut to achieve bowel                     movements."
        }
      ],
      "note": [
        {
          "text": "Take with a glass of fluid. May take 2-3 days for                     maximum effect. Do not take with laxatives                     containing liquid paraffin. Abdominal discomfort,                     nausea and rash may."
        }
      ],
      "dosage": [
        {
          "text": "Take two tablets in the morning and in the evening"
        }
      ]
    },
    {
      "resourceType": "Medication",
      "id": "44df5dcf-a870-4a49-980e-b295629c3e71",
      "code": {
        "text": "DOCUSATE SENNA(TAB) 50 mg"
      }
    }
  ],
  "extension": [
    {
      "url": "http://hl7.org.au/fhir/StructureDefinition/author-role",
      "valueReference": {
        "reference": "#2be6504a-160a-4cb0-ac4c-4b5aa503085d"
      }
    }
  ],
  "status": "current",
  "mode": "snapshot",
  "title": "Ceased medicines list",
  "code": {
    "coding": [
      {
        "system": "https://healthterminologies.gov.au/fhir/CodeSystem/nctis-data-components-1",
        "code": "101.32027",
        "display": "Ceased Medicines"
      }
    ]
  },
  "subject": {
    "reference": "#c7688ecf-5a6c-4a2f-ae2c-88a347278656"
  },
  "date": "2019-09-02T10:00:15+10:00",
  "source": {
    "reference": "#4e2ed22a-95c8-4403-87fa-9a6a171ddc8b"
  },
  "entry": [
    {
      "flag": {
        "coding": [
          {
            "system": "http://hl7.org.au/fhir/CodeSystem/medicine-item-change",
            "code": "nochange",
            "display": "Unchanged"
          }
        ]
      },
      "item": {
        "reference": "#af3be636-c156-4172-8cbb-27856d5fc650"
      }
    },
    {
      "flag": {
        "coding": [
          {
            "system": "http://hl7.org.au/fhir/CodeSystem/medicine-item-change",
            "code": "ceased",
            "display": "Ceased"
          }
        ]
      },
      "item": {
        "reference": "#a8bd298d-40d0-4bd9-946b-6688f5f2f443"
      }
    },
    {
      "flag": {
        "coding": [
          {
            "system": "http://hl7.org.au/fhir/CodeSystem/medicine-item-change",
            "code": "ceased",
            "display": "Ceased"
          }
        ]
      },
      "item": {
        "reference": "#e558d94a-e4ba-4095-8d2e-74b9df14a9d1"
      }
    }
  ]
}