{
  "resourceType": "Bundle",
  "id": "7fdbd082-b9c4-46bf-ac8d-8f71de24ac4a",
  "meta": {
    "lastUpdated": "2019-06-03T11:00:00+10:00"
  },
  "identifier": {
    "system": "urn:ietf:rfc:3986",
    "value": "urn:uuid:0c3151bd-1cbf-4d64-b04d-cd9187a4c6e0"
  },
  "type": "document",
  "entry": [
    {
      "fullUrl": "urn:uuid:2384da13-ff91-4e05-930f-2d7a034ea713",
      "resource": {
        "resourceType": "Composition",
        "id": "2384da13-ff91-4e05-930f-2d7a034ea713",
        "meta": {
          "lastUpdated": "2019-06-03T11:00:00+10:00"
        },
        "language": "en-AU",
        "text": {
          "status": "additional",
          "div": "<div xmlns=\"http://www.w3.org/1999/xhtml\" lang=\"en-AU\">\n                    <h1>Event Summary</h1>\n                    <p><b>subject</b>: Gough Goodpatient; HC = 307111942H; gender = male</p>\n                    <p><b>status</b>: final</p>\n                    <p><b>type</b>: Summary of episode note</p>\n                    <p><b>date</b>: 30/05/2019 10:00:00 AM</p>\n                    <p><b>author</b>: Barry Helpman (OFFICIAL); HPI-I = 8003610000000000;\n                        bhelpman@example.devonportgp.com.au (WORK)</p>\n                    <p><b>author role</b>: General Practitioner; Medicare Provider Number: 5544887B,\n                        HPI-I = 8003610000000000; Barry Helpman; Devonport Family Medicine\n                        Clinic</p>\n                    <p><b>attester</b>: Barry Helpman; Mode: legal; Time: 30/03/2019 10:00 AM;\n                        Party: HPI-I = 8003610000000000</p>\n                    <p><b>custodian</b>: Devonport Family Medicine Clinic; ABN = 51824754455;\n                        reception@example.dfmc.com.au (WORK); fax: (03) 8543 5557 (WORK); ph: (03)\n                        8543 5556 (WORK)</p>\n                </div>"
        },
        "extension": [
          {
            "url": "http://hl7.org.au/fhir/StructureDefinition/composition-author-role",
            "valueReference": {
              "reference": "urn:uuid:45cad6ac-e9a3-418a-8480-4e64132849f2"
            }
          }
        ],
        "status": "final",
        "type": {
          "coding": [
            {
              "system": "http://loinc.org",
              "code": "34133-9",
              "display": "Summary of episode note"
            }
          ]
        },
        "subject": {
          "reference": "urn:uuid:3a72f2d2-c9ed-40a4-beac-01c14dcf244a"
        },
        "encounter": {
          "reference": "urn:uuid:6c39fd65-2a5f-42d0-b3db-20b6416e2b9a"
        },
        "date": "2019-05-30T10:00:00+10:00",
        "author": [
          {
            "reference": "urn:uuid:40a94071-8373-4d53-a788-63b79c75a3c1"
          }
        ],
        "title": "Event Summary",
        "attester": [
          {
            "mode": [
              "legal"
            ],
            "time": "2019-05-30T10:00:00+10:00",
            "party": {
              "reference": "urn:uuid:40a94071-8373-4d53-a788-63b79c75a3c1"
            }
          }
        ],
        "custodian": {
          "reference": "urn:uuid:021fff67-c5ec-438f-9520-ce9bafee1306"
        },
        "section": [
          {
            "title": "Event Details",
            "code": {
              "coding": [
                {
                  "system": "https://healthterminologies.gov.au/fhir/CodeSystem/nctis-data-components-1",
                  "code": "101.16672"
                }
              ]
            },
            "text": {
              "status": "additional",
              "div": "<div xmlns=\"http://www.w3.org/1999/xhtml\" lang=\"en-AU\">\n                        <p>Patient presented for follow-up with urinary tract infection on 30\n                            May.</p>\n                        <p>Complaining of frequent and painful urinating. Midstream urine test was\n                            done and revealed urinary infection.</p>\n                        <p>Culture and sensitivity test discovered escherichia coli sensitive to\n                            Bactrim.</p>\n                        <p>Patient was prescribed Bactrim 2 tablets twice a day, and Panadol one\n                            tablet 4 times a day.</p>\n                        <p>Patient has no allergies.</p>\n                    </div>"
            },
            "entry": [
              {
                "reference": "urn:uuid:6c39fd65-2a5f-42d0-b3db-20b6416e2b9a"
              }
            ]
          },
          {
            "title": "Allergies and Adverse Reactions",
            "code": {
              "coding": [
                {
                  "system": "http://loinc.org",
                  "code": "48765-2"
                }
              ]
            },
            "text": {
              "status": "additional",
              "div": "<div xmlns=\"http://www.w3.org/1999/xhtml\" lang=\"en-AU\">\n                        <p>No known allergies</p>\n                    </div>"
            },
            "entry": [
              {
                "reference": "urn:uuid:b21f4cad-024a-4101-a6dd-80d50e29e295"
              }
            ]
          },
          {
            "title": "Medications",
            "code": {
              "coding": [
                {
                  "system": "http://loinc.org",
                  "code": "10160-0"
                }
              ]
            },
            "text": {
              "status": "additional",
              "div": "<div xmlns=\"http://www.w3.org/1999/xhtml\" lang=\"en-AU\">\n                        <table border=\"1\">\n                            <caption>Medicines List</caption>\n                            <thead>\n                                <tr>\n                                    <th>Medicine</th>\n                                    <th>Directions</th>\n                                    <th>Clinical Indication/Change description</th>\n                                    <th>Status</th>\n                                </tr>\n                            </thead>\n                            <tbody>\n                                <tr>\n                                    <td><b>Bactrim</b> DS - tablet</td>\n                                    <td>Take 2 tablets twice a day</td>\n                                    <td>To treat bacterial infections</td>\n                                    <td>New prescription</td>\n                                </tr>\n                                <tr>\n                                    <td><b>Panadol</b> 500mg - tablet</td>\n                                    <td>Take 1 tablet four times a day</td>\n                                    <td>For pain</td>\n                                    <td>New</td>\n                                </tr>\n                            </tbody>\n                        </table>\n                    </div>"
            },
            "entry": [
              {
                "reference": "urn:uuid:6eeee721-3485-4e1f-81b8-450a2143f441"
              }
            ]
          },
          {
            "title": "Medical History",
            "code": {
              "coding": [
                {
                  "system": "https://healthterminologies.gov.au/fhir/CodeSystem/nctis-data-components-1",
                  "code": "101.16117"
                }
              ]
            },
            "text": {
              "status": "additional",
              "div": "<div xmlns=\"http://www.w3.org/1999/xhtml\" lang=\"en-AU\">\n                        <table border=\"1\">\n                            <caption>Condition Details</caption>\n                            <thead>\n                                <tr>\n                                    <th>Condition</th>\n                                    <th>Onset Date Time</th>\n                                </tr>\n                            </thead>\n                            <tbody>\n                                <tr>\n                                    <td>Urinary tract infection</td>\n                                    <td>2019-05-10</td>\n                                </tr>\n                            </tbody>\n                        </table>\n                    </div>"
            },
            "entry": [
              {
                "reference": "urn:uuid:ed5e2c34-2d28-4d21-a6aa-be7baad865b8"
              }
            ]
          },
          {
            "title": "Diagnostic Investigations",
            "code": {
              "coding": [
                {
                  "system": "http://loinc.org",
                  "code": "30954-2"
                }
              ]
            },
            "text": {
              "status": "additional",
              "div": "<div xmlns=\"http://www.w3.org/1999/xhtml\" lang=\"en-AU\">\n                        <table border=\"1\">\n                            <caption>Diagnostic results</caption>\n                            <thead>\n                                <tr>\n                                    <th>Test</th>\n                                    <th>Result</th>\n\t\t\t\t\t\t\t\t\t<th>Date</th>\n                                </tr>\n                            </thead>\n                            <tbody>\n                                <tr>\n                                    <td>Culture and sensitivity</td>\n                                    <td>Escherichia coli grown</td>\n\t\t\t\t\t\t\t\t\t<td>2019-05-10</td>\n                                </tr>\n                            </tbody>\n                        </table>\n                    </div>"
            }
          }
        ]
      }
    },
    {
      "fullUrl": "urn:uuid:3a72f2d2-c9ed-40a4-beac-01c14dcf244a",
      "resource": {
        "resourceType": "Patient",
        "id": "3a72f2d2-c9ed-40a4-beac-01c14dcf244a",
        "meta": {
          "lastUpdated": "2019-06-03T11:00:00+10:00"
        },
        "text": {
          "status": "generated",
          "div": "<div xmlns=\"http://www.w3.org/1999/xhtml\"><p><b>Generated Narrative with Details</b></p><p><b>id</b>: 3a72f2d2-c9ed-40a4-beac-01c14dcf244a</p><p><b>meta</b>: </p><p><b>identifier</b>: Health Card Number = 307111942H</p><p><b>name</b>: Gough Goodpatient </p><p><b>gender</b>: male</p><p><b>generalPractitioner</b>: <a href=\"urn:uuid:20f15728-f3ac-4877-b55a-107f94dbd00c\">urn:uuid:20f15728-f3ac-4877-b55a-107f94dbd00c</a></p><p><b>managingOrganization</b>: <a href=\"urn:uuid:021fff67-c5ec-438f-9520-ce9bafee1306\">urn:uuid:021fff67-c5ec-438f-9520-ce9bafee1306</a></p></div>"
        },
        "identifier": [
          {
            "type": {
              "coding": [
                {
                  "system": "http://hl7.org/fhir/v2/0203",
                  "code": "HC",
                  "display": "Health Card Number"
                }
              ]
            },
            "system": "http://ns.electronichealth.net.au/id/centrelink-customer-reference-number",
            "value": "307111942H"
          }
        ],
        "name": [
          {
            "family": "Goodpatient",
            "given": [
              "Gough"
            ]
          }
        ],
        "gender": "male",
        "generalPractitioner": [
          {
            "reference": "urn:uuid:20f15728-f3ac-4877-b55a-107f94dbd00c"
          }
        ],
        "managingOrganization": {
          "reference": "urn:uuid:021fff67-c5ec-438f-9520-ce9bafee1306"
        }
      }
    },
    {
      "fullUrl": "urn:uuid:40a94071-8373-4d53-a788-63b79c75a3c1",
      "resource": {
        "resourceType": "Practitioner",
        "id": "40a94071-8373-4d53-a788-63b79c75a3c1",
        "meta": {
          "lastUpdated": "2019-06-03T11:00:00+10:00"
        },
        "text": {
          "status": "generated",
          "div": "<div xmlns=\"http://www.w3.org/1999/xhtml\"><p><b>Generated Narrative with Details</b></p><p><b>id</b>: 40a94071-8373-4d53-a788-63b79c75a3c1</p><p><b>meta</b>: </p><p><b>identifier</b>: HPI-I = 8003610000000000</p><p><b>name</b>: Barry Helpman (OFFICIAL)</p><p><b>telecom</b>: bhelpman@example.devonportgp.com.au(WORK)</p><h3>Qualifications</h3><table class=\"grid\"><tr><td>-</td><td><b>Identifier</b></td><td><b>Code</b></td><td><b>Issuer</b></td></tr><tr><td>*</td><td>AHPRA Registration Number = MED0000932850</td><td>AHPRA qualification for General Practitioner <span style=\"background: LightGoldenRodYellow\">(Details : {http://www.abs.gov.au/ausstats/abs@.nsf/mf/1220.0 code '253111' = '253111', given as 'General Medical Practitioner'})</span></td><td>AHPRA</td></tr></table></div>"
        },
        "identifier": [
          {
            "type": {
              "coding": [
                {
                  "system": "http://hl7.org/fhir/v2/0203",
                  "code": "NPI",
                  "display": "National provider identifier"
                }
              ],
              "text": "HPI-I"
            },
            "system": "http://ns.electronichealth.net.au/id/hi/hpii/1.0",
            "value": "8003610000000000"
          }
        ],
        "name": [
          {
            "use": "official",
            "family": "Helpman",
            "given": [
              "Barry"
            ],
            "suffix": [
              "M.D."
            ]
          }
        ],
        "telecom": [
          {
            "system": "email",
            "value": "bhelpman@example.devonportgp.com.au",
            "use": "work"
          }
        ],
        "qualification": [
          {
            "identifier": [
              {
                "type": {
                  "coding": [
                    {
                      "system": "http://hl7.org.au/fhir/v2/0203",
                      "code": "AHPRA",
                      "display": "Australian Health Practitioner Regulation Agency Registration Number"
                    }
                  ],
                  "text": "AHPRA Registration Number"
                },
                "system": "http://hl7.org.au/id/ahpra-registration-number",
                "value": "MED0000932850"
              }
            ],
            "code": {
              "coding": [
                {
                  "system": "http://www.abs.gov.au/ausstats/abs@.nsf/mf/1220.0",
                  "code": "253111",
                  "display": "General Medical Practitioner"
                }
              ],
              "text": "AHPRA qualification for General Practitioner"
            },
            "issuer": {
              "display": "AHPRA"
            }
          }
        ]
      }
    },
    {
      "fullUrl": "urn:uuid:20f15728-f3ac-4877-b55a-107f94dbd00c",
      "resource": {
        "resourceType": "Practitioner",
        "id": "20f15728-f3ac-4877-b55a-107f94dbd00c",
        "meta": {
          "lastUpdated": "2019-06-03T11:00:00+10:00"
        },
        "text": {
          "status": "generated",
          "div": "<div xmlns=\"http://www.w3.org/1999/xhtml\"><p><b>Generated Narrative with Details</b></p><p><b>id</b>: 20f15728-f3ac-4877-b55a-107f94dbd00c</p><p><b>meta</b>: </p><p><b>name</b>: Good Doctor (OFFICIAL)</p></div>"
        },
        "name": [
          {
            "use": "official",
            "family": "Doctor",
            "given": [
              "Good"
            ],
            "prefix": [
              "Dr."
            ]
          }
        ]
      }
    },
    {
      "fullUrl": "urn:uuid:45cad6ac-e9a3-418a-8480-4e64132849f2",
      "resource": {
        "resourceType": "PractitionerRole",
        "id": "45cad6ac-e9a3-418a-8480-4e64132849f2",
        "meta": {
          "lastUpdated": "2019-06-03T11:00:00+10:00"
        },
        "text": {
          "status": "generated",
          "div": "<div xmlns=\"http://www.w3.org/1999/xhtml\"><p><b>Generated Narrative with Details</b></p><p><b>id</b>: 45cad6ac-e9a3-418a-8480-4e64132849f2</p><p><b>meta</b>: </p><p><b>identifier</b>: Medicare Provider Number = 5544887B, HPI-I = 8003610000000000</p><p><b>practitioner</b>: <a href=\"urn:uuid:40a94071-8373-4d53-a788-63b79c75a3c1\">urn:uuid:40a94071-8373-4d53-a788-63b79c75a3c1</a></p><p><b>organization</b>: <a href=\"urn:uuid:021fff67-c5ec-438f-9520-ce9bafee1306\">urn:uuid:021fff67-c5ec-438f-9520-ce9bafee1306</a></p><p><b>code</b>: GP <span style=\"background: LightGoldenRodYellow\">(Details : {http://www.abs.gov.au/ausstats/abs@.nsf/mf/1220.0 code '253111' = '253111', given as 'General Practitioner'})</span></p></div>"
        },
        "identifier": [
          {
            "type": {
              "coding": [
                {
                  "system": "http://hl7.org.au/fhir/v2/0203",
                  "code": "UPIN"
                }
              ],
              "text": "Medicare Provider Number"
            },
            "system": "http://ns.electronichealth.net.au/id/medicare-provider-number",
            "value": "5544887B"
          },
          {
            "type": {
              "coding": [
                {
                  "system": "http://hl7.org/fhir/v2/0203",
                  "code": "NPI",
                  "display": "National provider identifier"
                }
              ],
              "text": "HPI-I"
            },
            "system": "http://ns.electronichealth.net.au/id/hi/hpii/1.0",
            "value": "8003610000000000"
          }
        ],
        "practitioner": {
          "reference": "urn:uuid:40a94071-8373-4d53-a788-63b79c75a3c1"
        },
        "organization": {
          "reference": "urn:uuid:021fff67-c5ec-438f-9520-ce9bafee1306"
        },
        "code": [
          {
            "coding": [
              {
                "system": "http://www.abs.gov.au/ausstats/abs@.nsf/mf/1220.0",
                "code": "253111",
                "display": "General Practitioner"
              }
            ],
            "text": "GP"
          }
        ]
      }
    },
    {
      "fullUrl": "urn:uuid:021fff67-c5ec-438f-9520-ce9bafee1306",
      "resource": {
        "resourceType": "Organization",
        "id": "021fff67-c5ec-438f-9520-ce9bafee1306",
        "meta": {
          "lastUpdated": "2019-06-03T11:00:00+10:00"
        },
        "text": {
          "status": "generated",
          "div": "<div xmlns=\"http://www.w3.org/1999/xhtml\"><p><b>Generated Narrative with Details</b></p><p><b>id</b>: 021fff67-c5ec-438f-9520-ce9bafee1306</p><p><b>meta</b>: </p><p><b>identifier</b>: ABN = 51824754455</p><p><b>name</b>: Devonport Family Medicine Clinic</p><p><b>telecom</b>: reception@example.dfmc.com.au(WORK), fax: (03) 8543 5557(WORK), ph: (03) 8543 5556(WORK)</p><p><b>address</b>: LPO Box 235 Strahan TAS 7468 AU </p></div>"
        },
        "identifier": [
          {
            "type": {
              "text": "ABN"
            },
            "system": "http://hl7.org.au/id/abn",
            "value": "51824754455"
          }
        ],
        "name": "Devonport Family Medicine Clinic",
        "telecom": [
          {
            "system": "email",
            "value": "reception@example.dfmc.com.au",
            "use": "work"
          },
          {
            "system": "fax",
            "value": "(03) 8543 5557",
            "use": "work"
          },
          {
            "system": "phone",
            "value": "(03) 8543 5556",
            "use": "work"
          }
        ],
        "address": [
          {
            "type": "postal",
            "line": [
              "LPO Box 235"
            ],
            "city": "Strahan",
            "state": "TAS",
            "postalCode": "7468",
            "country": "AU"
          }
        ]
      }
    },
    {
      "fullUrl": "urn:uuid:6eeee721-3485-4e1f-81b8-450a2143f441",
      "resource": {
        "resourceType": "List",
        "id": "6eeee721-3485-4e1f-81b8-450a2143f441",
        "meta": {
          "lastUpdated": "2019-06-03T11:00:00+10:00"
        },
        "text": {
          "status": "generated",
          "div": "<div xmlns=\"http://www.w3.org/1999/xhtml\"><p><b>Generated Narrative with Details</b></p><p><b>id</b>: 6eeee721-3485-4e1f-81b8-450a2143f441</p><p><b>meta</b>: </p><p><b>status</b>: current</p><p><b>mode</b>: snapshot</p><p><b>code</b>: History of Medication use Narrative <span style=\"background: LightGoldenRodYellow\">(Details : {LOINC code '10160-0' = 'History of Medication use Narrative)</span></p><p><b>subject</b>: <a href=\"urn:uuid:3a72f2d2-c9ed-40a4-beac-01c14dcf244a\">urn:uuid:3a72f2d2-c9ed-40a4-beac-01c14dcf244a</a></p><p><b>date</b>: 30/05/2019 10:00:00 AM</p><p><b>source</b>: <a href=\"urn:uuid:6883bef7-e829-4832-a329-3ca48f607d21\">urn:uuid:6883bef7-e829-4832-a329-3ca48f607d21</a></p><blockquote><p><b>entry</b></p><p><b>flag</b>: New prescription <span style=\"background: LightGoldenRodYellow\">(Details : {http://hl7.org.au/fhir/CodeSystem/medicine-item-change code 'prescribed' = 'New prescription', given as 'New prescription'})</span></p><p><b>item</b>: <a href=\"urn:uuid:c20c510b-fd91-45eb-bacc-171a9a0261e5\">urn:uuid:c20c510b-fd91-45eb-bacc-171a9a0261e5</a></p></blockquote><blockquote><p><b>entry</b></p><p><b>flag</b>: New <span style=\"background: LightGoldenRodYellow\">(Details : {http://hl7.org.au/fhir/CodeSystem/medicine-item-change code 'new' = 'New', given as 'New'})</span></p><p><b>item</b>: <a href=\"urn:uuid:df0af202-6da0-4e67-9c22-ebc21ee34309\">urn:uuid:df0af202-6da0-4e67-9c22-ebc21ee34309</a></p></blockquote></div>"
        },
        "status": "current",
        "mode": "snapshot",
        "code": {
          "coding": [
            {
              "system": "http://loinc.org",
              "code": "10160-0"
            }
          ]
        },
        "subject": {
          "reference": "urn:uuid:3a72f2d2-c9ed-40a4-beac-01c14dcf244a"
        },
        "date": "2019-05-30T10:00:00+10:00",
        "source": {
          "reference": "urn:uuid:6883bef7-e829-4832-a329-3ca48f607d21"
        },
        "entry": [
          {
            "extension": [
              {
                "url": "http://hl7.org.au/fhir/StructureDefinition/change-description",
                "valueString": "To treat bacterial infections"
              }
            ],
            "flag": {
              "coding": [
                {
                  "system": "http://hl7.org.au/fhir/CodeSystem/medicine-item-change",
                  "code": "prescribed",
                  "display": "New prescription"
                }
              ]
            },
            "item": {
              "reference": "urn:uuid:c20c510b-fd91-45eb-bacc-171a9a0261e5"
            }
          },
          {
            "extension": [
              {
                "url": "http://hl7.org.au/fhir/StructureDefinition/change-description",
                "valueString": "For pain"
              }
            ],
            "flag": {
              "coding": [
                {
                  "system": "http://hl7.org.au/fhir/CodeSystem/medicine-item-change",
                  "code": "new",
                  "display": "New"
                }
              ]
            },
            "item": {
              "reference": "urn:uuid:df0af202-6da0-4e67-9c22-ebc21ee34309"
            }
          }
        ]
      }
    },
    {
      "fullUrl": "urn:uuid:6c39fd65-2a5f-42d0-b3db-20b6416e2b9a",
      "resource": {
        "resourceType": "Encounter",
        "id": "6c39fd65-2a5f-42d0-b3db-20b6416e2b9a",
        "meta": {
          "lastUpdated": "2019-06-03T11:00:00+10:00"
        },
        "text": {
          "status": "generated",
          "div": "<div xmlns=\"http://www.w3.org/1999/xhtml\"><p><b>Generated Narrative with Details</b></p><p><b>id</b>: 6c39fd65-2a5f-42d0-b3db-20b6416e2b9a</p><p><b>meta</b>: </p><p><b>status</b>: finished</p><p><b>class</b>: outpatient (Details: [not stated] code outpatient = 'outpatient', stated as 'null')</p><p><b>subject</b>: <a href=\"urn:uuid:3a72f2d2-c9ed-40a4-beac-01c14dcf244a\">urn:uuid:3a72f2d2-c9ed-40a4-beac-01c14dcf244a</a></p><p><b>period</b>: 30/05/2019 9:00:00 AM --&gt; 30/05/2019 9:30:00 AM</p></div>"
        },
        "extension": [
          {
            "url": "http://hl7.org.au/fhir/StructureDefinition/encounter-description",
            "valueString": "Patient presented for follow-up with urinary tract infection on 30 May. Complaining of frequent and painful urinating.                          Midstream urine test was done and revealed urinary infection. Culture and sensitivity test discovered escherichia coli sensitive to Bactrim.                         Patient was prescribed Bactrim 2 tablets twice a day, and Panadol one tablet 4 times a day. Patient has no allergies."
          }
        ],
        "status": "finished",
        "class": {
          "code": "outpatient"
        },
        "subject": {
          "reference": "urn:uuid:3a72f2d2-c9ed-40a4-beac-01c14dcf244a"
        },
        "period": {
          "start": "2019-05-30T09:00:00+10:00",
          "end": "2019-05-30T09:30:00+10:00"
        }
      }
    },
    {
      "fullUrl": "urn:uuid:c20c510b-fd91-45eb-bacc-171a9a0261e5",
      "resource": {
        "resourceType": "MedicationStatement",
        "id": "c20c510b-fd91-45eb-bacc-171a9a0261e5",
        "meta": {
          "lastUpdated": "2019-06-03T11:00:00+10:00"
        },
        "text": {
          "status": "generated",
          "div": "<div xmlns=\"http://www.w3.org/1999/xhtml\"><p><b>Generated Narrative with Details</b></p><p><b>id</b>: c20c510b-fd91-45eb-bacc-171a9a0261e5</p><p><b>meta</b>: </p><p><b>status</b>: intended</p><p><b>medication</b>: Bactrim DS - tablet <span style=\"background: LightGoldenRodYellow\">(Details : {SNOMED CT code '6632011000036102' = '6632011000036102', given as 'Bactrim DS film-coated tablet'})</span></p><p><b>subject</b>: <a href=\"urn:uuid:3a72f2d2-c9ed-40a4-beac-01c14dcf244a\">urn:uuid:3a72f2d2-c9ed-40a4-beac-01c14dcf244a</a></p><p><b>taken</b>: n</p><p><b>reasonCode</b>: Urinary tract infection <span style=\"background: LightGoldenRodYellow\">(Details : {SNOMED CT code '68566005' = 'Urinary tract infectious disease', given as 'Urinary tract infection'})</span></p><p><b>dosage</b>: </p></div>"
        },
        "status": "intended",
        "medicationCodeableConcept": {
          "coding": [
            {
              "system": "http://snomed.info/sct",
              "code": "6632011000036102",
              "display": "Bactrim DS film-coated tablet"
            }
          ],
          "text": "Bactrim DS - tablet"
        },
        "subject": {
          "reference": "urn:uuid:3a72f2d2-c9ed-40a4-beac-01c14dcf244a"
        },
        "taken": "n",
        "reasonCode": [
          {
            "coding": [
              {
                "system": "http://snomed.info/sct",
                "code": "68566005",
                "display": "Urinary tract infection"
              }
            ]
          }
        ],
        "dosage": [
          {
            "text": "Take 2 tablets twice a day"
          }
        ]
      }
    },
    {
      "fullUrl": "urn:uuid:df0af202-6da0-4e67-9c22-ebc21ee34309",
      "resource": {
        "resourceType": "MedicationStatement",
        "id": "df0af202-6da0-4e67-9c22-ebc21ee34309",
        "meta": {
          "lastUpdated": "2019-06-03T11:00:00+10:00"
        },
        "text": {
          "status": "generated",
          "div": "<div xmlns=\"http://www.w3.org/1999/xhtml\"><p><b>Generated Narrative with Details</b></p><p><b>id</b>: df0af202-6da0-4e67-9c22-ebc21ee34309</p><p><b>meta</b>: </p><p><b>status</b>: intended</p><p><b>medication</b>: Panadol 500mg - tablet <span style=\"background: LightGoldenRodYellow\">(Details : {SNOMED CT code '54012011000036102' = '54012011000036102', given as 'Panadol 500 mg film-coated tablet'})</span></p><p><b>subject</b>: <a href=\"urn:uuid:3a72f2d2-c9ed-40a4-beac-01c14dcf244a\">urn:uuid:3a72f2d2-c9ed-40a4-beac-01c14dcf244a</a></p><p><b>taken</b>: n</p><p><b>reasonCode</b>: For pain <span style=\"background: LightGoldenRodYellow\">(Details )</span></p><p><b>dosage</b>: </p></div>"
        },
        "status": "intended",
        "medicationCodeableConcept": {
          "coding": [
            {
              "system": "http://snomed.info/sct",
              "code": "54012011000036102",
              "display": "Panadol 500 mg film-coated tablet"
            }
          ],
          "text": "Panadol 500mg - tablet"
        },
        "subject": {
          "reference": "urn:uuid:3a72f2d2-c9ed-40a4-beac-01c14dcf244a"
        },
        "taken": "n",
        "reasonCode": [
          {
            "text": "For pain"
          }
        ],
        "dosage": [
          {
            "text": "Take 1 tablet four times a day"
          }
        ]
      }
    },
    {
      "fullUrl": "urn:uuid:b21f4cad-024a-4101-a6dd-80d50e29e295",
      "resource": {
        "resourceType": "AllergyIntolerance",
        "id": "b21f4cad-024a-4101-a6dd-80d50e29e295",
        "meta": {
          "lastUpdated": "2019-06-03T11:00:00+10:00"
        },
        "text": {
          "status": "generated",
          "div": "<div xmlns=\"http://www.w3.org/1999/xhtml\"><p><b>Generated Narrative with Details</b></p><p><b>id</b>: b21f4cad-024a-4101-a6dd-80d50e29e295</p><p><b>meta</b>: </p><p><b>clinicalStatus</b>: active</p><p><b>verificationStatus</b>: unconfirmed</p><p><b>code</b>: No known allergy <span style=\"background: LightGoldenRodYellow\">(Details : {SNOMED CT code '716186003' = 'No known allergy (situation)', given as 'No known allergy'})</span></p><p><b>patient</b>: <a href=\"urn:uuid:3a72f2d2-c9ed-40a4-beac-01c14dcf244a\">urn:uuid:3a72f2d2-c9ed-40a4-beac-01c14dcf244a</a></p></div>"
        },
        "clinicalStatus": "active",
        "verificationStatus": "unconfirmed",
        "code": {
          "coding": [
            {
              "system": "http://snomed.info/sct",
              "code": "716186003",
              "display": "No known allergy"
            }
          ]
        },
        "patient": {
          "reference": "urn:uuid:3a72f2d2-c9ed-40a4-beac-01c14dcf244a"
        }
      }
    },
    {
      "fullUrl": "urn:uuid:ed5e2c34-2d28-4d21-a6aa-be7baad865b8",
      "resource": {
        "resourceType": "Condition",
        "id": "ed5e2c34-2d28-4d21-a6aa-be7baad865b8",
        "meta": {
          "lastUpdated": "2019-06-03T11:00:00+10:00"
        },
        "text": {
          "status": "generated",
          "div": "<div xmlns=\"http://www.w3.org/1999/xhtml\"><p><b>Generated Narrative with Details</b></p><p><b>id</b>: ed5e2c34-2d28-4d21-a6aa-be7baad865b8</p><p><b>meta</b>: </p><p><b>clinicalStatus</b>: active</p><p><b>verificationStatus</b>: confirmed</p><p><b>code</b>: Urinary tract infection <span style=\"background: LightGoldenRodYellow\">(Details : {SNOMED CT code '68566005' = 'Urinary tract infectious disease', given as 'Urinary tract infection'})</span></p><p><b>subject</b>: <a href=\"urn:uuid:3a72f2d2-c9ed-40a4-beac-01c14dcf244a\">urn:uuid:3a72f2d2-c9ed-40a4-beac-01c14dcf244a</a></p><p><b>onset</b>: 10/05/2019</p></div>"
        },
        "clinicalStatus": "active",
        "verificationStatus": "confirmed",
        "code": {
          "coding": [
            {
              "system": "http://snomed.info/sct",
              "code": "68566005",
              "display": "Urinary tract infection"
            }
          ]
        },
        "subject": {
          "reference": "urn:uuid:3a72f2d2-c9ed-40a4-beac-01c14dcf244a"
        },
        "onsetDateTime": "2019-05-10"
      }
    }
  ]
}