{
  "resourceType": "Bundle",
  "id": "3bb44f10-4350-498c-a629-4bf43df620e9",
  "meta": {
    "lastUpdated": "2018-09-21T09:01:00+10:00"
  },
  "identifier": {
    "system": "urn:ietf:rfc:4122",
    "value": "a863c855-f4c9-4edf-b0f4-5edcbb6239be"
  },
  "type": "document",
  "entry": [
    {
      "fullUrl": "urn:uuid:565b1e7e-01c1-4379-a3d6-6e21cdea43e9",
      "resource": {
        "resourceType": "Composition",
        "id": "565b1e7e-01c1-4379-a3d6-6e21cdea43e9",
        "meta": {
          "lastUpdated": "2018-09-21T09:00:15+10:00",
          "profile": [
            "http://ns.electronichealth.net.au/ci/fhir/3.0/StructureDefinition/composition-es-1"
          ]
        },
        "language": "en-AU",
        "text": {
          "status": "generated",
          "div": "<div xmlns=\"http://www.w3.org/1999/xhtml\" lang=\"en-AU\">\n            <p><b>Patient:</b> Eliana IGLESIAS, IHI: 8003608666701594</p> \n            <p><b>Author:</b> Barry HELPMAN M.D., bhelpman@example.devonportgp.com.au, (GP)</p>  \n            <table border=\"1\">\n              <caption>Usual GP</caption>\n              <thead>\n                <tr>\n                  <th>Name</th>                    \n                  <th>Contact details</th>\n                  <th>Address</th>\n                  <th>Organisation</th>\n                </tr>\n              </thead>\n              <tbody>\n                <tr>\n                  <td>Dr. Francis SMITH</td>\n                  <td>-</td>\n                  <td>-</td>\n                  <td>Devonport Family Medicine Clinic</td>                  \n                </tr>               \n              </tbody>\n            </table>\n            <h2>Administrative details</h2>\n            <p><b>Document type:</b> Event Summary</p>\n            <p><b>Created date/time:</b> 19 July 2018</p>\n            <p><b>Date/Time attested:</b> 21 July 2018 13:00+1000 </p>\n            <p><b>Custodian:</b> Devonport Family Medicine Clinic, (03)8543 5556</p>\n          </div>"
        },
        "extension": [
          {
            "url": "http://hl7.org.au/fhir/StructureDefinition/composition-author-role",
            "valueReference": {
              "reference": "urn:uuid:45cad6ac-e9a3-418a-8480-4e64132849f2"
            }
          }
        ],
        "status": "final",
        "type": {
          "coding": [
            {
              "system": "http://loinc.org",
              "code": "34133-9",
              "display": "Summary of episode note"
            }
          ]
        },
        "subject": {
          "reference": "urn:uuid:792b4811-2ce7-4531-8893-af827175bcfe"
        },
        "encounter": {
          "reference": "urn:uuid:98900f15-67f8-48a1-9345-6d5968f2c23e"
        },
        "date": "2018-07-19",
        "author": [
          {
            "reference": "urn:uuid:40a94071-8373-4d53-a788-63b79c75a3c1"
          }
        ],
        "title": "Event Summary",
        "attester": [
          {
            "mode": [
              "legal"
            ],
            "time": "2018-09-21T09:00:15+10:00",
            "party": {
              "reference": "urn:uuid:40a94071-8373-4d53-a788-63b79c75a3c1"
            }
          }
        ],
        "custodian": {
          "reference": "urn:uuid:021fff67-c5ec-438f-9520-ce9bafee1306"
        },
        "section": [
          {
            "title": "Event Details",
            "code": {
              "coding": [
                {
                  "system": "https://healthterminologies.gov.au/fhir/CodeSystem/nctis-data-components-1",
                  "code": "101.16672",
                  "display": "Event Overview"
                }
              ]
            },
            "text": {
              "status": "additional",
              "div": "<div xmlns=\"http://www.w3.org/1999/xhtml\" lang=\"en-AU\">\n              <p><b>Presentation date</b>: 19 July 2018 09:00</p>  \n              <p><b>Encounter Description</b>: Patient presented with a headache, fever, sore\n                throat. Patient advised she has no known allergies and was prescribed amoxicillin 500mg\n                3/day for 5 days, and augmentin forte 1 tablet twice a day for five days during this\n                event. Patient advised that usually takes sumatriptan for migraine; they took one tablet\n                during the event, and during the event they were given one tablet to take home.</p>                        \n            </div>"
            },
            "entry": [
              {
                "reference": "urn:uuid:98900f15-67f8-48a1-9345-6d5968f2c23e"
              }
            ]
          },
          {
            "title": "Allergies and Adverse Reactions",
            "code": {
              "coding": [
                {
                  "system": "http://loinc.org",
                  "code": "48765-2",
                  "display": "Allergies and adverse reactions Document"
                }
              ]
            },
            "text": {
              "status": "generated",
              "div": "<div xmlns=\"http://www.w3.org/1999/xhtml\">\n              <p>No known allergies.</p>\n            </div>"
            },
            "entry": [
              {
                "reference": "urn:uuid:a5e03840-1be4-43e0-acd2-c9e288adc4f9"
              }
            ]
          },
          {
            "title": "Medications",
            "code": {
              "coding": [
                {
                  "system": "http://loinc.org",
                  "code": "10160-0",
                  "display": "History of Medication use Narrative"
                }
              ]
            },
            "text": {
              "status": "extensions",
              "div": "<div xmlns=\"http://www.w3.org/1999/xhtml\" lang=\"en-AU\">\n              <table border=\"1\">\n                <caption>Medicines List</caption>\n                <thead>\n                  <tr>\n                    <th>Medicine</th>                    \n                    <th>Directions</th>\n                    <th>Clinical Indication/Change description</th>\n                    <th>Status</th>\n                  </tr>\n                </thead>\n                <tbody>\n                  <tr>\n                    <td><b>amoxicillin</b> 500 mg - capsule</td>\n                    <td>Take 3 tablets a day for 5 days.</td>\n                    <td>For headache, fever, sore throat.</td>\n                    <td>New prescription</td>\n                  </tr>\n                  <tr>\n                    <td><b>Augmentin Duo Forte</b> 875/125 - tablet</td>\n                    <td>Take 1 tablet twice a day for 5 days.</td>\n                    <td>For headache, fever, sore throat.</td>\n                    <td>New prescription</td>\n                  </tr>                  \n                  <tr>\n                    <td><b>sumatriptan</b> 100 mg - tablet</td>\n                    <td>As required</td>\n                    <td>For migraine.</td>\n                    <td>Unchanged</td>\n                  </tr>\n                </tbody>\n              </table>\n            </div>"
            },
            "entry": [
              {
                "reference": "urn:uuid:fa11a4f8-9ecc-4a65-9643-74c3c84880f4"
              }
            ]
          }
        ]
      }
    },
    {
      "fullUrl": "urn:uuid:792b4811-2ce7-4531-8893-af827175bcfe",
      "resource": {
        "resourceType": "Patient",
        "id": "792b4811-2ce7-4531-8893-af827175bcfe",
        "meta": {
          "lastUpdated": "2018-09-21T09:00:00+10:00"
        },
        "text": {
          "status": "extensions",
          "div": "<div xmlns=\"http://www.w3.org/1999/xhtml\">\n            <h2>Patient details</h2>\n            <p><b>Eliana IGLESIAS</b></p>            \n            <p><b>Date of birth</b>: 20 Aug 1960, Female</p>\n            <p>IHI: 8003608666701594</p>             \n            <p>Indigenous status: Not stated/inadequately described</p>            \n          </div>"
        },
        "extension": [
          {
            "url": "http://hl7.org.au/fhir/StructureDefinition/indigenous-status",
            "valueCoding": {
              "system": "https://healthterminologies.gov.au/fhir/CodeSystem/australian-indigenous-status-1",
              "code": "9",
              "display": "Not stated/inadequately described"
            }
          }
        ],
        "identifier": [
          {
            "type": {
              "coding": [
                {
                  "system": "http://hl7.org/fhir/v2/0203",
                  "code": "NI",
                  "display": "National unique individual identifier"
                }
              ]
            },
            "system": "http://ns.electronichealth.net.au/id/hi/ihi/1.0",
            "value": "8003608666701594"
          }
        ],
        "name": [
          {
            "text": "Iliana Iglesias",
            "family": "Iglesias",
            "given": [
              "Iliana"
            ]
          }
        ],
        "gender": "other",
        "birthDate": "1960-08-20",
        "_birthDate": {
          "extension": [
            {
              "url": "http://hl7.org.au/fhir/StructureDefinition/date-accuracy-indicator",
              "valueCoding": {
                "system": "https://healthterminologies.gov.au/fhir/CodeSystem/date-accuracy-indicator-1",
                "code": "AAE",
                "display": "Day and month are accurate, year is estimated"
              }
            },
            {
              "url": "http://hl7.org/fhir/StructureDefinition/patient-birthTime",
              "valueDateTime": "1960-08-20T20:07:00+10:00"
            }
          ]
        },
        "generalPractitioner": [
          {
            "reference": "urn:uuid:6c9f40e7-6f00-4d75-9f39-d57bd620d855"
          }
        ],
        "managingOrganization": {
          "reference": "urn:uuid:021fff67-c5ec-438f-9520-ce9bafee1306"
        }
      }
    },
    {
      "fullUrl": "urn:uuid:40a94071-8373-4d53-a788-63b79c75a3c1",
      "resource": {
        "resourceType": "Practitioner",
        "id": "40a94071-8373-4d53-a788-63b79c75a3c1",
        "meta": {
          "lastUpdated": "2018-09-21T09:00:00+10:00"
        },
        "text": {
          "status": "generated",
          "div": "<div xmlns=\"http://www.w3.org/1999/xhtml\"><p><b>Generated Narrative with Details</b></p><p><b>id</b>: 40a94071-8373-4d53-a788-63b79c75a3c1</p><p><b>meta</b>: </p><p><b>identifier</b>: HPI-I = 8003610000000000</p><p><b>name</b>: Barry Helpman (OFFICIAL)</p><p><b>telecom</b>: bhelpman@example.devonportgp.com.au(WORK)</p><h3>Qualifications</h3><table class=\"grid\"><tr><td>-</td><td><b>Identifier</b></td><td><b>Code</b></td><td><b>Issuer</b></td></tr><tr><td>*</td><td>AHPRA Registration Number = MED0000932850</td><td>AHPRA qualification for General Practitioner <span style=\"background: LightGoldenRodYellow\">(Details : {http://www.abs.gov.au/ausstats/abs@.nsf/mf/1220.0 code '253111' = '253111', given as 'General Medical Practitioner'})</span></td><td>AHPRA</td></tr></table></div>"
        },
        "identifier": [
          {
            "type": {
              "coding": [
                {
                  "system": "http://hl7.org/fhir/v2/0203",
                  "code": "NPI",
                  "display": "National provider identifier"
                }
              ],
              "text": "HPI-I"
            },
            "system": "http://ns.electronichealth.net.au/id/hi/hpii/1.0",
            "value": "8003610000000000"
          }
        ],
        "name": [
          {
            "use": "official",
            "family": "Helpman",
            "given": [
              "Barry"
            ],
            "suffix": [
              "M.D."
            ]
          }
        ],
        "telecom": [
          {
            "system": "email",
            "value": "bhelpman@example.devonportgp.com.au",
            "use": "work"
          }
        ],
        "qualification": [
          {
            "identifier": [
              {
                "type": {
                  "coding": [
                    {
                      "system": "http://hl7.org.au/fhir/v2/0203",
                      "code": "AHPRA",
                      "display": "Australian Health Practitioner Regulation Agency Registration Number"
                    }
                  ],
                  "text": "AHPRA Registration Number"
                },
                "system": "http://hl7.org.au/id/ahpra-registration-number",
                "value": "MED0000932850"
              }
            ],
            "code": {
              "coding": [
                {
                  "system": "http://www.abs.gov.au/ausstats/abs@.nsf/mf/1220.0",
                  "code": "253111",
                  "display": "General Medical Practitioner"
                }
              ],
              "text": "AHPRA qualification for General Practitioner"
            },
            "issuer": {
              "display": "AHPRA"
            }
          }
        ]
      }
    },
    {
      "fullUrl": "urn:uuid:6c9f40e7-6f00-4d75-9f39-d57bd620d855",
      "resource": {
        "resourceType": "Practitioner",
        "id": "6c9f40e7-6f00-4d75-9f39-d57bd620d855",
        "meta": {
          "lastUpdated": "2018-07-19T11:00:00+10:00"
        },
        "text": {
          "status": "generated",
          "div": "<div xmlns=\"http://www.w3.org/1999/xhtml\"><p><b>Generated Narrative with Details</b></p><p><b>id</b>: 6c9f40e7-6f00-4d75-9f39-d57bd620d855</p><p><b>meta</b>: </p><p><b>identifier</b>: HPI-I = 8003611234567893</p><p><b>name</b>: Francis Smith </p><h3>Qualifications</h3><table class=\"grid\"><tr><td>-</td><td><b>Identifier</b></td><td><b>Code</b></td><td><b>Issuer</b></td></tr><tr><td>*</td><td>AHPRA Registration Number = MED0000197980</td><td>AHPRA qualification for General Practitioner <span style=\"background: LightGoldenRodYellow\">(Details : {http://www.abs.gov.au/ausstats/abs@.nsf/mf/1220.0 code '253111' = '253111', given as 'General Medical Practitioner'})</span></td><td>AHPRA</td></tr></table></div>"
        },
        "identifier": [
          {
            "type": {
              "coding": [
                {
                  "system": "http://hl7.org/fhir/v2/0203",
                  "code": "NPI",
                  "display": "National provider identifier"
                }
              ],
              "text": "HPI-I"
            },
            "system": "http://ns.electronichealth.net.au/id/hi/hpii/1.0",
            "value": "8003611234567893"
          }
        ],
        "name": [
          {
            "family": "Smith",
            "given": [
              "Francis"
            ],
            "prefix": [
              "Dr"
            ]
          }
        ],
        "qualification": [
          {
            "identifier": [
              {
                "type": {
                  "coding": [
                    {
                      "system": "http://hl7.org.au/fhir/v2/0203",
                      "code": "AHPRA",
                      "display": "Australian Health Practitioner Regulation Agency Registration Number"
                    }
                  ],
                  "text": "AHPRA Registration Number"
                },
                "system": "http://hl7.org.au/id/ahpra-registration-number",
                "value": "MED0000197980"
              }
            ],
            "code": {
              "coding": [
                {
                  "system": "http://www.abs.gov.au/ausstats/abs@.nsf/mf/1220.0",
                  "code": "253111",
                  "display": "General Medical Practitioner"
                }
              ],
              "text": "AHPRA qualification for General Practitioner"
            },
            "issuer": {
              "display": "AHPRA"
            }
          }
        ]
      }
    },
    {
      "fullUrl": "urn:uuid:45cad6ac-e9a3-418a-8480-4e64132849f2",
      "resource": {
        "resourceType": "PractitionerRole",
        "id": "45cad6ac-e9a3-418a-8480-4e64132849f2",
        "meta": {
          "profile": [
            "http://ns.electronichealth.net.au/ci/fhir/3.0/StructureDefinition/practitionerrole-withpractitionerident-1"
          ]
        },
        "text": {
          "status": "generated",
          "div": "<div xmlns=\"http://www.w3.org/1999/xhtml\"><p><b>Generated Narrative with Details</b></p><p><b>id</b>: 45cad6ac-e9a3-418a-8480-4e64132849f2</p><p><b>meta</b>: </p><p><b>identifier</b>: Medicare Provider Number = 5544887B, HPI-I = 8003610000000000</p><p><b>practitioner</b>: <a href=\"Practitioner-40a94071-8373-4d53-a788-63b79c75a3c1.html\">Generated Summary: id: 40a94071-8373-4d53-a788-63b79c75a3c1; HPI-I = 8003610000000000; Barry Helpman (OFFICIAL); bhelpman@example.devonportgp.com.au(WORK)</a></p><p><b>organization</b>: <a href=\"Organization-021fff67-c5ec-438f-9520-ce9bafee1306.html\">Generated Summary: id: 021fff67-c5ec-438f-9520-ce9bafee1306; ABN = 51824754455; name: Devonport Family Medicine Clinic; reception@example.dfmc.com.au(WORK), fax: (03) 8543 5557(WORK), ph: (03) 8543 5556(WORK)</a></p><p><b>code</b>: GP <span style=\"background: LightGoldenRodYellow\">(Details : {http://www.abs.gov.au/ausstats/abs@.nsf/mf/1220.0 code '253111' = '253111', given as 'General Practitioner'})</span></p></div>"
        },
        "identifier": [
          {
            "type": {
              "coding": [
                {
                  "system": "http://hl7.org.au/fhir/v2/0203",
                  "code": "UPIN"
                }
              ],
              "text": "Medicare Provider Number"
            },
            "system": "http://ns.electronichealth.net.au/id/medicare-provider-number",
            "value": "5544887B"
          },
          {
            "type": {
              "coding": [
                {
                  "system": "http://hl7.org/fhir/v2/0203",
                  "code": "NPI",
                  "display": "National provider identifier"
                }
              ],
              "text": "HPI-I"
            },
            "system": "http://ns.electronichealth.net.au/id/hi/hpii/1.0",
            "value": "8003610000000000"
          }
        ],
        "practitioner": {
          "reference": "Practitioner/40a94071-8373-4d53-a788-63b79c75a3c1"
        },
        "organization": {
          "reference": "Organization/021fff67-c5ec-438f-9520-ce9bafee1306"
        },
        "code": [
          {
            "coding": [
              {
                "system": "http://www.abs.gov.au/ausstats/abs@.nsf/mf/1220.0",
                "code": "253111",
                "display": "General Practitioner"
              }
            ],
            "text": "GP"
          }
        ]
      }
    },
    {
      "fullUrl": "urn:uuid:021fff67-c5ec-438f-9520-ce9bafee1306",
      "resource": {
        "resourceType": "Organization",
        "id": "021fff67-c5ec-438f-9520-ce9bafee130",
        "meta": {
          "lastUpdated": "2018-09-21T09:00:00+10:00"
        },
        "text": {
          "status": "generated",
          "div": "<div xmlns=\"http://www.w3.org/1999/xhtml\"><p><b>Generated Narrative with Details</b></p><p><b>id</b>: 021fff67-c5ec-438f-9520-ce9bafee130</p><p><b>meta</b>: </p><p><b>identifier</b>: ABN = 51824754455</p><p><b>name</b>: Devonport Family Medicine Clinic</p><p><b>telecom</b>: reception@example.dfmc.com.au(WORK), fax: (03) 8543 5557(WORK), ph: (03) 8543 5556(WORK)</p><p><b>address</b>: LPO Box 235 Strahan TAS 7468 AU </p></div>"
        },
        "identifier": [
          {
            "type": {
              "text": "ABN"
            },
            "system": "http://hl7.org.au/id/abn",
            "value": "51824754455"
          }
        ],
        "name": "Devonport Family Medicine Clinic",
        "telecom": [
          {
            "system": "email",
            "value": "reception@example.dfmc.com.au",
            "use": "work"
          },
          {
            "system": "fax",
            "value": "(03) 8543 5557",
            "use": "work"
          },
          {
            "system": "phone",
            "value": "(03) 8543 5556",
            "use": "work"
          }
        ],
        "address": [
          {
            "type": "postal",
            "line": [
              "LPO Box 235"
            ],
            "city": "Strahan",
            "state": "TAS",
            "postalCode": "7468",
            "country": "AU"
          }
        ]
      }
    },
    {
      "fullUrl": "urn:uuid:fa11a4f8-9ecc-4a65-9643-74c3c84880f4",
      "resource": {
        "resourceType": "List",
        "id": "fa11a4f8-9ecc-4a65-9643-74c3c84880f4",
        "meta": {
          "lastUpdated": "2018-07-19T11:00:00+10:00"
        },
        "text": {
          "status": "extensions",
          "div": "<div xmlns=\"http://www.w3.org/1999/xhtml\" lang=\"en-AU\">\n            <h2>List</h2>\n            <p><b>status</b>: current</p>            \n            <table border=\"1\">\n              <caption>Medicines List</caption>\n              <thead>\n                <tr>\n                  <th>Medicine</th>                    \n                  <th>Directions</th>\n                  <th>Clinical Indication/Change description</th>\n                  <th>Status</th>\n                </tr>\n              </thead>\n              <tbody>\n                <tr>\n                  <td><b>amoxicillin</b> 500 mg - capsule</td>\n                  <td>Take 3 tablets a day for 5 days.</td>\n                  <td>For headache, fever, sore throat.</td>\n                  <td>New prescription</td>\n                  <td/>\n                </tr>\n                <tr>\n                  <td><b>Augmentin Duo Forte</b> 875/125 - tablet</td>\n                  <td>Take 1 tablet twice a day for 5 days.</td>\n                  <td>For headache, fever, sore throat.</td>\n                  <td>New prescription</td>\n                  <td/>\n                </tr>                  \n                <tr>\n                  <td><b>sumatriptan</b> 100 mg - tablet</td>\n                  <td>As required</td>\n                  <td>For migraine.</td>\n                  <td>Unchanged</td>\n                </tr>\n              </tbody>\n            </table>\n          </div>"
        },
        "status": "current",
        "mode": "snapshot",
        "code": {
          "coding": [
            {
              "system": "http://loinc.org",
              "code": "10160-0"
            }
          ]
        },
        "subject": {
          "reference": "urn:uuid:792b4811-2ce7-4531-8893-af827175bcfe"
        },
        "entry": [
          {
            "extension": [
              {
                "url": "http://hl7.org.au/fhir/StructureDefinition/change-description",
                "valueString": "Prescription for headache, fever, sore throat"
              }
            ],
            "flag": {
              "coding": [
                {
                  "system": "http://hl7.org.au/fhir/CodeSystem/medicine-item-change",
                  "code": "prescribed",
                  "display": "New prescription"
                }
              ]
            },
            "item": {
              "reference": "urn:uuid:9db8a050-0c25-4192-834d-bca1da8ff250"
            }
          },
          {
            "extension": [
              {
                "url": "http://hl7.org.au/fhir/StructureDefinition/change-description",
                "valueString": "Prescription for headache, fever, sore throat"
              }
            ],
            "flag": {
              "coding": [
                {
                  "system": "http://hl7.org.au/fhir/CodeSystem/medicine-item-change",
                  "code": "prescribed",
                  "display": "New prescription"
                }
              ]
            },
            "item": {
              "reference": "urn:uuid:fc257fb0-8325-4f85-b29f-4c100346f527"
            }
          },
          {
            "extension": [
              {
                "url": "http://hl7.org.au/fhir/StructureDefinition/change-description",
                "valueString": "Migraine"
              }
            ],
            "flag": {
              "coding": [
                {
                  "system": "http://hl7.org.au/fhir/CodeSystem/medicine-item-change",
                  "code": "nochange",
                  "display": "Unchanged"
                }
              ]
            },
            "item": {
              "reference": "urn:uuid:32def593-e104-4cee-b8f5-d1f923efd94b"
            }
          }
        ]
      }
    },
    {
      "fullUrl": "urn:uuid:98900f15-67f8-48a1-9345-6d5968f2c23e",
      "resource": {
        "resourceType": "Encounter",
        "id": "98900f15-67f8-48a1-9345-6d5968f2c23e",
        "meta": {
          "lastUpdated": "2018-09-21T09:00:00+10:00"
        },
        "text": {
          "status": "generated",
          "div": "<div xmlns=\"http://www.w3.org/1999/xhtml\"><p><b>Generated Narrative with Details</b></p><p><b>id</b>: 98900f15-67f8-48a1-9345-6d5968f2c23e</p><p><b>meta</b>: </p><p><b>status</b>: finished</p><p><b>subject</b>: <a href=\"urn:uuid:792b4811-2ce7-4531-8893-af827175bcfe\">urn:uuid:792b4811-2ce7-4531-8893-af827175bcfe</a></p><p><b>period</b>: 19/07/2018 9:00:00 AM --&gt; 19/07/2018 9:15:00 AM</p></div>"
        },
        "extension": [
          {
            "url": "http://hl7.org.au/fhir/StructureDefinition/encounter-description",
            "valueString": "Patient presented with a headache, fever, sore throat. Patient advised she has no known allergies and was prescribed amoxicillin 500mg 3/day for 5 days, and augmentin forte 1 tablet twice a day for five days during this event. Patient advised that usually takes sumatriptan for migraine; they took one tablet during the event, and during the event they were given one tablet to take home."
          }
        ],
        "status": "finished",
        "subject": {
          "reference": "urn:uuid:792b4811-2ce7-4531-8893-af827175bcfe"
        },
        "period": {
          "start": "2018-07-19T09:00:00+10:00",
          "end": "2018-07-19T09:15:00+10:00"
        }
      }
    },
    {
      "fullUrl": "urn:uuid:32def593-e104-4cee-b8f5-d1f923efd94b",
      "resource": {
        "resourceType": "MedicationStatement",
        "id": "32def593-e104-4cee-b8f5-d1f923efd94b",
        "meta": {
          "lastUpdated": "2018-09-21T09:00:00+10:00"
        },
        "text": {
          "status": "generated",
          "div": "<div xmlns=\"http://www.w3.org/1999/xhtml\"><p><b>Generated Narrative with Details</b></p><p><b>id</b>: 32def593-e104-4cee-b8f5-d1f923efd94b</p><p><b>meta</b>: </p><p><b>status</b>: active</p><p><b>medication</b>: sumatriptan 100 mg <span style=\"background: LightGoldenRodYellow\">(Details : {SNOMED CT code '45219011000036101' = '45219011000036101', given as 'sumatriptan 100 mg tablet'})</span></p><p><b>subject</b>: <a href=\"urn:uuid:792b4811-2ce7-4531-8893-af827175bcfe\">urn:uuid:792b4811-2ce7-4531-8893-af827175bcfe</a></p><p><b>taken</b>: y</p><p><b>reasonCode</b>: Migraine <span style=\"background: LightGoldenRodYellow\">(Details )</span></p><p><b>note</b>: Patient advised that usually takes sumatriptan for migraine; they took one             tablet during the event, and during the event they were given one tablet to take home.</p><p><b>dosage</b>: </p></div>"
        },
        "status": "active",
        "medicationCodeableConcept": {
          "coding": [
            {
              "system": "http://snomed.info/sct",
              "code": "45219011000036101",
              "display": "sumatriptan 100 mg tablet"
            }
          ],
          "text": "sumatriptan 100 mg"
        },
        "subject": {
          "reference": "urn:uuid:792b4811-2ce7-4531-8893-af827175bcfe"
        },
        "taken": "y",
        "reasonCode": [
          {
            "text": "Migraine"
          }
        ],
        "note": [
          {
            "text": "Patient advised that usually takes sumatriptan for migraine; they took one             tablet during the event, and during the event they were given one tablet to take home."
          }
        ],
        "dosage": [
          {
            "text": "As required"
          }
        ]
      }
    },
    {
      "fullUrl": "urn:uuid:9db8a050-0c25-4192-834d-bca1da8ff250",
      "resource": {
        "resourceType": "MedicationStatement",
        "id": "9db8a050-0c25-4192-834d-bca1da8ff250",
        "meta": {
          "lastUpdated": "2018-07-19T11:00:00+10:00"
        },
        "text": {
          "status": "generated",
          "div": "<div xmlns=\"http://www.w3.org/1999/xhtml\"><p><b>Generated Narrative with Details</b></p><p><b>id</b>: 9db8a050-0c25-4192-834d-bca1da8ff250</p><p><b>meta</b>: </p><p><b>status</b>: intended</p><p><b>medication</b>: amoxicillin 500 mg capsule <span style=\"background: LightGoldenRodYellow\">(Details : {SNOMED CT code '23551011000036108' = '23551011000036108', given as 'amoxicillin 500 mg capsule'})</span></p><p><b>subject</b>: <a href=\"urn:uuid:792b4811-2ce7-4531-8893-af827175bcfe\">urn:uuid:792b4811-2ce7-4531-8893-af827175bcfe</a></p><p><b>taken</b>: n</p><p><b>reasonCode</b>: headache, fever and sore throat <span style=\"background: LightGoldenRodYellow\">(Details )</span></p><p><b>dosage</b>: </p></div>"
        },
        "status": "intended",
        "medicationCodeableConcept": {
          "coding": [
            {
              "system": "http://snomed.info/sct",
              "code": "23551011000036108",
              "display": "amoxicillin 500 mg capsule"
            }
          ],
          "text": "amoxicillin 500 mg capsule"
        },
        "subject": {
          "reference": "urn:uuid:792b4811-2ce7-4531-8893-af827175bcfe"
        },
        "taken": "n",
        "reasonCode": [
          {
            "text": "headache, fever and sore throat"
          }
        ],
        "dosage": [
          {
            "text": "Take 3 tablets a day for 5 days"
          }
        ]
      }
    },
    {
      "fullUrl": "urn:uuid:fc257fb0-8325-4f85-b29f-4c100346f527",
      "resource": {
        "resourceType": "MedicationStatement",
        "id": "fc257fb0-8325-4f85-b29f-4c100346f527",
        "meta": {
          "lastUpdated": "2018-07-19T11:00:00+10:00"
        },
        "text": {
          "status": "generated",
          "div": "<div xmlns=\"http://www.w3.org/1999/xhtml\"><p><b>Generated Narrative with Details</b></p><p><b>id</b>: fc257fb0-8325-4f85-b29f-4c100346f527</p><p><b>meta</b>: </p><p><b>status</b>: intended</p><p><b>medication</b>: Augmentin Duo Forte 875/125 tablet <span style=\"background: LightGoldenRodYellow\">(Details : {SNOMED CT code '6052011000036107' = '6052011000036107', given as 'Augmentin Duo Forte 875/125 film-coated tablet'})</span></p><p><b>subject</b>: <a href=\"urn:uuid:792b4811-2ce7-4531-8893-af827175bcfe\">urn:uuid:792b4811-2ce7-4531-8893-af827175bcfe</a></p><p><b>taken</b>: n</p><p><b>reasonCode</b>: headache, fever and sore throat <span style=\"background: LightGoldenRodYellow\">(Details )</span></p><p><b>dosage</b>: </p></div>"
        },
        "status": "intended",
        "medicationCodeableConcept": {
          "coding": [
            {
              "system": "http://snomed.info/sct",
              "code": "6052011000036107",
              "display": "Augmentin Duo Forte 875/125 film-coated tablet"
            }
          ],
          "text": "Augmentin Duo Forte 875/125 tablet"
        },
        "subject": {
          "reference": "urn:uuid:792b4811-2ce7-4531-8893-af827175bcfe"
        },
        "taken": "n",
        "reasonCode": [
          {
            "text": "headache, fever and sore throat"
          }
        ],
        "dosage": [
          {
            "text": "1 tablet twice a day for five days"
          }
        ]
      }
    },
    {
      "fullUrl": "urn:uuid:a5e03840-1be4-43e0-acd2-c9e288adc4f9",
      "resource": {
        "resourceType": "AllergyIntolerance",
        "id": "a5e03840-1be4-43e0-acd2-c9e288adc4f9",
        "meta": {
          "lastUpdated": "2018-07-19T11:00:00+10:00"
        },
        "text": {
          "status": "generated",
          "div": "<div xmlns=\"http://www.w3.org/1999/xhtml\"><p><b>Generated Narrative with Details</b></p><p><b>id</b>: a5e03840-1be4-43e0-acd2-c9e288adc4f9</p><p><b>meta</b>: </p><p><b>clinicalStatus</b>: active</p><p><b>verificationStatus</b>: confirmed</p><p><b>code</b>: No known allergies <span style=\"background: LightGoldenRodYellow\">(Details : {SNOMED CT code '716186003' = 'No known allergy (situation)', given as 'No known allergy'})</span></p><p><b>patient</b>: <a href=\"urn:uuid:792b4811-2ce7-4531-8893-af827175bcfe\">urn:uuid:792b4811-2ce7-4531-8893-af827175bcfe</a></p></div>"
        },
        "clinicalStatus": "active",
        "verificationStatus": "confirmed",
        "code": {
          "coding": [
            {
              "system": "http://snomed.info/sct",
              "code": "716186003",
              "display": "No known allergy"
            }
          ],
          "text": "No known allergies"
        },
        "patient": {
          "reference": "urn:uuid:792b4811-2ce7-4531-8893-af827175bcfe"
        }
      }
    }
  ]
}