{
  "resourceType": "Composition",
  "id": "1840e786-bbd7-4abe-af3e-aa6e7f74c3f2",
  "meta": {
    "profile": [
      "http://ns.electronichealth.net.au/ci/fhir/3.0/StructureDefinition/composition-acp-1"
    ]
  },
  "language": "en-AU",
  "text": {
    "status": "additional",
    "div": "<div xmlns=\"http://www.w3.org/1999/xhtml\" lang=\"en-AU\">     \n      <p><b>id</b>: 1840e786-bbd7-4abe-af3e-aa6e7f74c3f2</p>      \n      <p><b>language</b>: en-AU</p>      \n      <p><b>status</b>: final</p>\n      <p><b>type</b>: Advance Care Planning <span style=\"background: LightGoldenRodYellow\">(Details\n        : {https://healthterminologies.gov.au/fhir/CodeSystem/nctis-data-components-1 code\n        '100.16975' = '100.16975', given as 'Advance Care Planning'})</span></p>\n      <p><b>subject</b>: name = Adam A. Everyman; IHI = 8003608666701594; gender = male</p>\n      <p><b>date</b>: 21/06/2017 9:00:15 AM</p>\n      <p><b>author</b>: name = Adam A. Everyman; IHI = 8003608666701594; gender = male </p>\n      <p><b>title</b>: Advance Care Planning Document</p>\n      <p><b>custodian</b>: PAI-O = 8003640001000036</p>\n    </div>"
  },
  "contained": [
    {
      "resourceType": "Patient",
      "id": "7817adef-177a-464c-b56e-27ffc0af4606",
      "meta": {
        "profile": [
          "http://ns.electronichealth.net.au/ci/fhir/3.0/StructureDefinition/patient-ident-1"
        ]
      },
      "identifier": [
        {
          "type": {
            "coding": [
              {
                "system": "http://hl7.org/fhir/v2/0203",
                "code": "NI",
                "display": "National unique individual identifier"
              }
            ]
          },
          "system": "http://ns.electronichealth.net.au/id/hi/ihi/1.0",
          "value": "8003608666701594"
        }
      ],
      "name": [
        {
          "use": "official",
          "text": "Adam A. Everyman",
          "family": "Everyman",
          "given": [
            "Adam",
            "A."
          ]
        },
        {
          "use": "usual",
          "given": [
            "Damo"
          ]
        }
      ],
      "gender": "male"
    },
    {
      "resourceType": "DocumentReference",
      "id": "e8b72e23-65c3-4cef-b91a-aba0bd307f5c",
      "meta": {
        "profile": [
          "http://ns.electronichealth.net.au/ci/fhir/3.0/StructureDefinition/documentreference-acp-1"
        ]
      },
      "masterIdentifier": {
        "system": "urn:ietf:rfc:3986",
        "value": "urn:uuid:738b6ba4-709a-4091-ad05-4790f39e17bc"
      },
      "identifier": [
        {
          "system": "urn:ietf:rfc:3986",
          "value": "urn:uuid:738b6ba4-709a-4091-ad05-4790f39e17bc"
        }
      ],
      "status": "current",
      "type": {
        "coding": [
          {
            "system": "https://healthterminologies.gov.au/fhir/CodeSystem/nctis-data-components-1",
            "code": "100.16998",
            "display": "Advance Care Planning Document"
          }
        ]
      },
      "subject": {
        "reference": "#7817adef-177a-464c-b56e-27ffc0af4606"
      },
      "created": "2019-11-03T12:35:00+10:00",
      "indexed": "2019-11-04T12:35:00+10:00",
      "author": [
        {
          "reference": "#7817adef-177a-464c-b56e-27ffc0af4606"
        }
      ],
      "content": [
        {
          "attachment": {
            "contentType": "application/pdf",
            "url": "attachment.pdf",
            "hash": "IiZNlyLY4gyewfICeWhFe2NcDDw="
          }
        }
      ]
    },
    {
      "resourceType": "Organization",
      "id": "3192b0cd-3a67-4cb5-b7d8-198057ba8b67",
      "meta": {
        "profile": [
          "http://ns.electronichealth.net.au/ci/fhir/3.0/StructureDefinition/organization-ident-1"
        ]
      },
      "identifier": [
        {
          "type": {
            "text": "PAI-O"
          },
          "system": "http://ns.electronichealth.net.au/id/pcehr/paio/1.0",
          "value": "8003640001000036"
        }
      ]
    }
  ],
  "status": "final",
  "type": {
    "coding": [
      {
        "system": "https://healthterminologies.gov.au/fhir/CodeSystem/nctis-data-components-1",
        "code": "100.16975",
        "display": "Advance Care Planning"
      }
    ]
  },
  "subject": {
    "reference": "#7817adef-177a-464c-b56e-27ffc0af4606"
  },
  "date": "2017-06-21T09:00:15+10:00",
  "author": [
    {
      "reference": "#7817adef-177a-464c-b56e-27ffc0af4606"
    }
  ],
  "title": "Advance Care Planning Document",
  "custodian": {
    "reference": "#3192b0cd-3a67-4cb5-b7d8-198057ba8b67"
  },
  "section": [
    {
      "title": "Advance Care Planning Document",
      "code": {
        "coding": [
          {
            "system": "https://healthterminologies.gov.au/fhir/CodeSystem/nctis-data-components-1",
            "code": "101.16973",
            "display": "Advance Care Information Section"
          }
        ]
      },
      "text": {
        "status": "additional",
        "div": "<div xmlns=\"http://www.w3.org/1999/xhtml\">\n        <p><a href=\"attachment.pdf\">Advance Care Plan for Adam</a></p>\n        <p>Created on: 03 November 2009</p>\n        <p>Created by: Adam Everyman</p>\n      </div>"
      },
      "entry": [
        {
          "reference": "#e8b72e23-65c3-4cef-b91a-aba0bd307f5c"
        }
      ]
    }
  ]
}