{
  "resourceType": "Composition",
  "id": "28bbf331-07d0-44a4-9d0b-927e83f483ec",
  "meta": {
    "profile": [
      "http://ns.electronichealth.net.au/ci/fhir/3.0/StructureDefinition/composition-acp-1"
    ]
  },
  "language": "en-AU",
  "text": {
    "status": "additional",
    "div": "<div xmlns=\"http://www.w3.org/1999/xhtml\" lang=\"en-AU\">\n      \n      <h1>Advance Care Planning</h1>\n      \n      <h2>Consumer details</h2>\n      <table>\n        <tbody>\n          <tr>\n            <th>Name</th>\n            <td>Adam A. Everyman</td>\n          </tr>\n          <tr>\n            <th>Identifier</th>\n            <td>IHI: 8003608833357361</td>\n          </tr>\n          <tr>\n            <th>Gender</th>\n            <td>Male</td>\n          </tr>\n        </tbody>\n      </table>\n      \n      <h2>Author details</h2>\n      <table>\n        <tbody>\n          <tr>\n            <th>Name</th>\n            <td>Dr. Peter Chalmers</td>\n          </tr>\n          <tr>\n            <th>Identifier</th>\n            <td>HPI-I: 8003619900015717</td>\n          </tr>\n          <tr>\n            <th>Authoring PractitionerRole</th>\n            <td>Dr Peter Chalmers, General Practitioner, HPI-I: 8003619900015717</td>\n          </tr>\n        </tbody>\n      </table>\n      \n      <h2>Document details</h2>\n      <table>\n        <tbody>\n          <tr>\n            <th>Status</th>\n            <td>final</td>\n          </tr>\n          <tr>\n            <th>Created</th>\n            <td>21 June 2017, 09:00:15</td>\n          </tr>\n          <tr>\n            <th>Custodian</th>\n            <td>PAI-O: 8003640001000036</td>\n          </tr>\n        </tbody>\n      </table>\n      \n    </div>"
  },
  "contained": [
    {
      "resourceType": "Patient",
      "id": "137f2770-8a52-48c8-98c0-790a29645a1a",
      "meta": {
        "profile": [
          "http://ns.electronichealth.net.au/ci/fhir/3.0/StructureDefinition/patient-ident-1"
        ]
      },
      "identifier": [
        {
          "type": {
            "coding": [
              {
                "system": "http://hl7.org/fhir/v2/0203",
                "code": "NI",
                "display": "National unique individual identifier"
              }
            ]
          },
          "system": "http://ns.electronichealth.net.au/id/hi/ihi/1.0",
          "value": "8003608833357361"
        }
      ],
      "name": [
        {
          "use": "official",
          "text": "Adam A. Everyman",
          "family": "Everyman",
          "given": [
            "Adam",
            "A."
          ]
        },
        {
          "use": "usual",
          "given": [
            "Damo"
          ]
        }
      ],
      "gender": "male"
    },
    {
      "resourceType": "Practitioner",
      "id": "e75140ff-3476-4efb-b508-20aa6c6fbc77",
      "meta": {
        "profile": [
          "http://ns.electronichealth.net.au/ci/fhir/3.0/StructureDefinition/practitioner-dh-base-1",
          "http://ns.electronichealth.net.au/ci/fhir/3.0/StructureDefinition/practitioner-ident-1"
        ]
      },
      "identifier": [
        {
          "type": {
            "coding": [
              {
                "system": "http://hl7.org/fhir/v2/0203",
                "code": "NPI",
                "display": "National provider identifier"
              }
            ],
            "text": "HPI-I"
          },
          "system": "http://ns.electronichealth.net.au/id/hi/hpii/1.0",
          "value": "8003619900015717"
        }
      ],
      "name": [
        {
          "use": "official",
          "family": "Chalmers",
          "given": [
            "Peter"
          ],
          "prefix": [
            "Dr."
          ]
        }
      ],
      "telecom": [
        {
          "system": "email",
          "value": "pchalmers@example.albiongp.com.au",
          "use": "work"
        }
      ]
    },
    {
      "resourceType": "PractitionerRole",
      "id": "cb9d944f-1b75-4603-b63a-167460882287",
      "meta": {
        "profile": [
          "http://ns.electronichealth.net.au/ci/fhir/3.0/StructureDefinition/practitionerrole-withpractitionerident-1"
        ]
      },
      "identifier": [
        {
          "type": {
            "coding": [
              {
                "system": "http://hl7.org/fhir/v2/0203",
                "code": "NPI",
                "display": "National provider identifier"
              }
            ],
            "text": "HPI-I"
          },
          "system": "http://ns.electronichealth.net.au/id/hi/hpii/1.0",
          "value": "8003619900015717"
        }
      ],
      "practitioner": {
        "reference": "#e75140ff-3476-4efb-b508-20aa6c6fbc77"
      },
      "organization": {
        "reference": "#0b27b9e9-50fb-4975-9e60-d053e4618288"
      },
      "code": [
        {
          "coding": [
            {
              "system": "http://www.abs.gov.au/ausstats/abs@.nsf/mf/1220.0",
              "code": "253111",
              "display": "General Practitioner"
            }
          ],
          "text": "GP"
        }
      ]
    },
    {
      "resourceType": "Organization",
      "id": "0b27b9e9-50fb-4975-9e60-d053e4618288",
      "meta": {
        "profile": [
          "http://ns.electronichealth.net.au/ci/fhir/3.0/StructureDefinition/organization-ident-1",
          "http://ns.electronichealth.net.au/ci/fhir/3.0/StructureDefinition/organization-dh-base-1"
        ]
      },
      "identifier": [
        {
          "type": {
            "text": "PAI-O"
          },
          "system": "http://ns.electronichealth.net.au/id/pcehr/paio/1.0",
          "value": "8003640001000036"
        }
      ],
      "name": "Albion GP Clinic"
    },
    {
      "resourceType": "DocumentReference",
      "id": "fc7889ef-477b-45d2-9b76-968ecff5940b",
      "meta": {
        "profile": [
          "http://ns.electronichealth.net.au/ci/fhir/3.0/StructureDefinition/documentreference-acp-1"
        ]
      },
      "extension": [
        {
          "url": "http://hl7.org.au/fhir/StructureDefinition/author-role﻿",
          "valueReference": {
            "reference": "#cb9d944f-1b75-4603-b63a-167460882287"
          }
        }
      ],
      "masterIdentifier": {
        "system": "urn:ietf:rfc:3986",
        "value": "urn:uuid:738b6ba4-709a-4091-ad05-4790f39e17bc"
      },
      "identifier": [
        {
          "system": "urn:ietf:rfc:3986",
          "value": "urn:uuid:738b6ba4-709a-4091-ad05-4790f39e17bc"
        }
      ],
      "status": "current",
      "type": {
        "coding": [
          {
            "system": "https://healthterminologies.gov.au/fhir/CodeSystem/nctis-data-components-1",
            "code": "100.16998",
            "display": "Advance Care Planning Document"
          }
        ]
      },
      "subject": {
        "reference": "#137f2770-8a52-48c8-98c0-790a29645a1a"
      },
      "created": "2019-11-03T12:35:00+10:00",
      "indexed": "2019-11-04T12:35:00+10:00",
      "author": [
        {
          "reference": "#e75140ff-3476-4efb-b508-20aa6c6fbc77"
        }
      ],
      "content": [
        {
          "attachment": {
            "contentType": "application/pdf",
            "url": "attachment.pdf",
            "hash": "IiZNlyLY4gyewfICeWhFe2NcDDw="
          }
        }
      ]
    }
  ],
  "extension": [
    {
      "url": "http://hl7.org.au/fhir/StructureDefinition/composition-author-role",
      "valueReference": {
        "reference": "#cb9d944f-1b75-4603-b63a-167460882287"
      }
    }
  ],
  "status": "final",
  "type": {
    "coding": [
      {
        "system": "https://healthterminologies.gov.au/fhir/CodeSystem/nctis-data-components-1",
        "code": "100.16975",
        "display": "Advance Care Planning"
      }
    ]
  },
  "subject": {
    "reference": "#137f2770-8a52-48c8-98c0-790a29645a1a"
  },
  "date": "2017-06-21T09:00:15+10:00",
  "author": [
    {
      "reference": "#e75140ff-3476-4efb-b508-20aa6c6fbc77"
    }
  ],
  "title": "Advance Care Planning Document",
  "attester": [
    {
      "mode": [
        "legal"
      ],
      "time": "2017-06-21T09:00:15+10:00",
      "party": {
        "reference": "#e75140ff-3476-4efb-b508-20aa6c6fbc77"
      }
    }
  ],
  "custodian": {
    "reference": "#0b27b9e9-50fb-4975-9e60-d053e4618288"
  },
  "section": [
    {
      "title": "Advance Care Planning Document",
      "code": {
        "coding": [
          {
            "system": "https://healthterminologies.gov.au/fhir/CodeSystem/nctis-data-components-1",
            "code": "101.16973",
            "display": "Advance Care Information Section"
          }
        ]
      },
      "text": {
        "status": "additional",
        "div": "<div xmlns=\"http://www.w3.org/1999/xhtml\">\n        <p><a href=\"attachment.pdf\">Advance Care Plan for Adam</a></p>\n        <p>Created on: 03 November 2009</p>\n        <p>Created by: Dr. Peter Chalmers</p>\n      </div>"
      },
      "entry": [
        {
          "reference": "#fc7889ef-477b-45d2-9b76-968ecff5940b"
        }
      ]
    }
  ]
}