<?xml version="1.0" encoding="UTF-8"?>

<!-- Conversion of the CDA example 'SML04_Example.xml' as Bundle of type message -->

<Bundle xmlns="http://hl7.org/fhir">
    <id value="df9ae2cb-3f27-4d62-b3a2-fbdda1657d95"/>
    <type value="message"/>
    
    <!-- Bundle of type 'message' requires first entry to be a MessageHeader -->
    <entry>
        <fullUrl value="urn:uuid:8c5636cb-e9cc-4c8f-99f7-d3ce25914e7c"/>
        <resource>
            <MessageHeader xmlns="http://hl7.org/fhir">
                <id value="d44b4af9-ecc5-480c-a474-ced88768f338"/>
                <event>
                    <!-- 'communication-request' => "Notification to convey information." -->
                    <code value="communication-request"/>
                </event>
                <timestamp value="2019-09-02T10:02:00+10:00"/>
                <source>
                    <!-- copied from HL7 example -->
                    <endpoint value="llp:10.11.12.13:5432"/>
                </source>
                <focus>
                    <!-- reference to the List resource -->
                    <reference value="urn:uuid:4e01dc73-a664-48fe-9f71-382c64b8ec38"/>
                </focus>
            </MessageHeader>
        </resource>
    </entry>

    <!-- List resource, copied from stand-alone list -->
    <entry>
        <fullUrl value="urn:uuid:4e01dc73-a664-48fe-9f71-382c64b8ec38"/>
        <resource>
            <List xmlns="http://hl7.org/fhir">
                <id value="a04e9676-5c38-4c56-8d24-c600e192613e"/>
                <meta>
                    <versionId value="1"/>
                    <profile value="http://ns.electronichealth.net.au/ci/fhir/3.0/StructureDefinition/list-sml-pracchanges-1"/>
                </meta>
                <language value="en-AU"/>
                <text>
                    <status value="additional"/>
                    <div xmlns="http://www.w3.org/1999/xhtml" lang="en-AU">
                        <table border="1">
                            <thead>
                                <tr>
                                    <th>Medicine name</th>
                                    <th>Other names</th>
                                    <th>Number to take/Directions</th>
                                    <th>Purpose</th>
                                    <th>Medicine change</th>
                                    <th>Special instructions</th>
                                </tr>
                            </thead>
                            <tbody>
                                <tr>
                                    <td>RAMIPRIL(TAB) 2.5 mg</td>
                                    <td>Tritace</td>
                                    <td>Take one in the morning</td>
                                    <td>To reduce high blood pressure; treat heart failure after a heart attack; prevent progression of kidney failure; reduce the risk of heart attack; stroke and stenting</td>
                                    <td/>
                                    <td>If you feel light-headed, dizzy or faint, get up slowly when getting our of bed. Make sure you drink enough water during excercise and hot weather when you are taking this medicine, especially if you sweat a lot. If you have excessive vomitting and or diarhoea while taking this medicine tell your doctor. May cause headache or unusal taste. Do not take potassium supplements while you are taking this medicine unless your doctor tells you to. If you develop signs of swelling of the lips or tongue, a dry cough or a rash see your doctor.</td>
                                </tr>
                                <tr>
                                    <td>ATORVASTATIN(TAB) 80 mg</td>
                                    <td>Lipitor</td>
                                    <td>Take 1 in the evening</td>
                                    <td>To lower cholestrol levels in the blood</td>
                                    <td/>
                                    <td>Seek medical advice promptly if your urine is dark (brown) or if you have any unexplained muscle pain, tenderness or weakness. Grapefruit juice should be avoided as it may increase the amount of this medicine in your bloodstream and could increase the chances of side effects occuring.</td>
                                </tr>
                                <tr>
                                    <td>DOCUSATE SENNA(TAB) 50 mg</td>
                                    <td>Coloxyl and Senna</td>
                                    <td>Take two tablets in the morning and in the evening</td>
                                    <td>Laxative for constipation, works by softening the stools and also assists by stimulating the gut to achieven bowel movements.</td>
                                    <td>New medicine</td>
                                    <td>Take with a glass of fluid. May take 2-3 days for maximum effect. Do not take with laxatives containing liquid paraffin. Abdominal discomfort, nausea and rash may occur.</td>
                                </tr>
                            </tbody>
                        </table>
                    </div>
                </text>

                <!-- contained Patient resource :: subject -->
                <contained>
                    <Patient>
                        <id value="c7688ecf-5a6c-4a2f-ae2c-88a347278656"/>
                        <identifier>
                            <type>
                                <coding>
                                    <system value="http://hl7.org/fhir/v2/0203"/>
                                    <code value="MR"/>
                                </coding>
                            </type>
                            <!-- TODO not sure about this system -->
                            <system value="urn:oid:1.2.36.1.2001.1005.29.8003621566684455"/>
                            <value value="542181"/>
                            <assigner>
                                <!-- TODO should this be a reference to a contained organization? -->
                                <display value="Croydon GP Centre"/>
                            </assigner>
                        </identifier>
                        <name>
                            <text value="Bert Gainey"/>
                        </name>
                        <address>
                            <line value="1 Caboolture Street"/>
                            <city value="Caboolture"/>
                            <state value="QLD"/>
                            <postalCode value="4510"/>
                            <country value="AU"/>
                        </address>
                    </Patient>
                </contained>

                <!-- contained Practitioner resource :: List.source  -->
                <contained>
                    <Practitioner>
                        <id value="4e2ed22a-95c8-4403-87fa-9a6a171ddc8b"/>
                        <meta>
                            <profile value="http://ns.electronichealth.net.au/ci/fhir/3.0/StructureDefinition/practitioner-ident-1"/>
                        </meta>
                        <identifier>
                            <type>
                                <coding>
                                    <system value="http://hl7.org/fhir/v2/0203"/>
                                    <code value="EI"/>
                                </coding>
                            </type>
                            <system value="http://ns.electronichealth.net.au/id/abn-scoped/service-provider-individual/1.0/51824994455"/>
                            <value value="north27"/>
                            <assigner>
                                <display value="Ascot Vale Family Medical Centre"/>
                            </assigner>
                        </identifier>
                        <name>
                            <family value="Black"/>
                            <given value="North"/>
                            <suffix value="M.D."/>
                        </name>
                    </Practitioner>
                </contained>

                <!-- contained PractitionerRole resource :: author-role -->
                <contained>
                    <PractitionerRole>
                        <id value="2be6504a-160a-4cb0-ac4c-4b5aa503085d"/>
                        <meta>
                            <profile value="http://ns.electronichealth.net.au/ci/fhir/3.0/StructureDefinition/practitionerrole-withpractitionerident-1"/>
                        </meta>
                        <identifier>
                            <type>
                                <coding>
                                    <system value="http://hl7.org/fhir/v2/0203"/>
                                    <code value="EI"/>
                                </coding>
                                <text value="Employee Number"/>
                            </type>
                            <system value="http://ns.electronichealth.net.au/id/abn-scoped/service-provider-individual/1.0/51824994455"/>
                            <value value="north27"/>
                            <assigner>
                                <display value="Ascot Vale Family Medical Centre"/>
                            </assigner>
                        </identifier>
                        <practitioner>
                            <!-- reference to contained Practitioner resource -->
                            <reference value="#4e2ed22a-95c8-4403-87fa-9a6a171ddc8b"/>
                        </practitioner>
                        <code>
                            <text value="General Practitioner"/>
                        </code>
                    </PractitionerRole>
                </contained>

                <!-- reference to contained MedicationStatement resource #1 -->
                <contained>
                    <MedicationStatement>
                        <id value="af3be636-c156-4172-8cbb-27856d5fc650"/>
                        <meta>
                            <profile value="http://ns.electronichealth.net.au/ci/fhir/3.0/StructureDefinition/medicationstatement-detailed-1"/>
                        </meta>
                        <status value="active"/>
                        <medicationReference>
                            <!-- reference to contained Medication resource -->
                            <reference value="#a0f3f01a-be9f-48f6-ae6f-ce5179768889"/>
                        </medicationReference>
                        <subject>
                            <!-- reference to contained Patient resource -->
                            <reference value="#c7688ecf-5a6c-4a2f-ae2c-88a347278656"/>
                        </subject>
                        <taken value="y"/>
                        <reasonCode>
                            <text value="To reduce elevated blood pressure; for
                    the prevention of angina; to treat or prevent
                    heart attack; for the treatment of heart failure;
                    to prevent migranes"/>
                        </reasonCode>
                        <note>
                            <text value="If you feel light-headed, dizzy or faint, get up
                    slowly when getting our of bed. Make sure you drink
                    enough water during excercise and hot weather when
                    you are taking this medicine, especially if you
                    sweat a lot. If you have excessive vomitting and or
                    diarhoea while taking this medicine tell your
                    doctor. May cause headache or unusal taste. Do not
                    take potassium supplements while you are taking this
                    medicine unless your doctor tells you to. If you
                    develop signs of swelling of the lips or tongue, a
                    dry cough or a rash see your doctor."/>
                        </note>
                        <dosage>
                            <text value="Take one in the morning"/>
                        </dosage>
                    </MedicationStatement>
                </contained>

                <!-- reference to contained Medication resource #1 -->
                <contained>
                    <Medication>
                        <id value="a0f3f01a-be9f-48f6-ae6f-ce5179768889"/>
                        <meta>
                            <profile value="http://ns.electronichealth.net.au/ci/fhir/3.0/StructureDefinition/medication-dh-base-1"/>
                        </meta>
                        <code>
                            <text value="RAMIPRIL(TAB) 2.5 mg, Tritace"/>
                        </code>
                    </Medication>
                </contained>

                <!-- reference to contained MedicationStatement resource #2 -->
                <contained>
                    <MedicationStatement>
                        <id value="a8bd298d-40d0-4bd9-946b-6688f5f2f443"/>
                        <meta>
                            <profile value="http://ns.electronichealth.net.au/ci/fhir/3.0/StructureDefinition/medicationstatement-detailed-1"/>
                        </meta>
                        <status value="active"/>
                        <medicationReference>
                            <!-- reference to contained Medication resource -->
                            <reference value="#5c13e76a-22da-4e67-a69a-0d3be5cd5495"/>
                        </medicationReference>
                        <subject>
                            <!-- reference to contained Patient resource -->
                            <reference value="#c7688ecf-5a6c-4a2f-ae2c-88a347278656"/>
                        </subject>
                        <taken value="y"/>
                        <reasonCode>
                            <text value="To lower cholestrol levels in the blood"/>
                        </reasonCode>
                        <note>
                            <text value="Seek medical advice promptly if your urine is dark
                    (brown) or if you have any unexplained muscle pain,
                    tenderness or weakness. Grapefruit juice should be
                    avoided as it may increase the amount of this
                    medicine in your bloodstream and could increase the
                    chances of side effects occuring."/>
                        </note>
                        <dosage>
                            <text value="Take 1 in the evening"/>
                        </dosage>
                    </MedicationStatement>
                </contained>

                <!-- reference to contained Medication resource #2 -->
                <contained>
                    <Medication>
                        <id value="5c13e76a-22da-4e67-a69a-0d3be5cd5495"/>
                        <meta>
                            <profile value="http://ns.electronichealth.net.au/ci/fhir/3.0/StructureDefinition/medication-dh-base-1"/>
                        </meta>
                        <code>
                            <coding>
                                <system value="http://snomed.info/sct"/>
                                <code value="23165011000036107"/>
                                <display value="atorvastatin 80 mg tablet"/>
                            </coding>
                            <text value="ATORVASTATIN(TAB) 80 mg, Lipitor"/>
                        </code>
                    </Medication>
                </contained>

                <!-- reference to contained MedicationStatement resource #3 -->
                <contained>
                    <MedicationStatement>
                        <id value="e558d94a-e4ba-4095-8d2e-74b9df14a9d1"/>
                        <meta>
                            <profile value="http://ns.electronichealth.net.au/ci/fhir/3.0/StructureDefinition/medicationstatement-detailed-1"/>
                        </meta>
                        <status value="active"/>
                        <medicationReference>
                            <!-- reference to contained Medication resource -->
                            <reference value="#44df5dcf-a870-4a49-980e-b295629c3e71"/>
                        </medicationReference>
                        <subject>
                            <!-- reference to contained Patient resource -->
                            <reference value="#c7688ecf-5a6c-4a2f-ae2c-88a347278656"/>
                        </subject>
                        <taken value="y"/>
                        <reasonCode>
                            <text value="Laxative for constipation, works by
                    softening the stools and also assists by
                    stimulating the gut to achieven bowel
                    movements."/>
                        </reasonCode>
                        <note>
                            <text value="Take with a glass of fluid. May take 2-3 days for
                    maximum effect. Do not take with laxatives
                    containing liquid paraffin. Abdominal discomfort,
                    nausea and rash may."/>
                        </note>
                        <dosage>
                            <text value="Take two tablets in the morning and in the evening"/>
                        </dosage>
                    </MedicationStatement>
                </contained>

                <!-- reference to contained Medication resource #3 -->
                <contained>
                    <Medication>
                        <id value="44df5dcf-a870-4a49-980e-b295629c3e71"/>
                        <meta>
                            <profile value="http://ns.electronichealth.net.au/ci/fhir/3.0/StructureDefinition/medication-dh-base-1"/>
                        </meta>
                        <code>
                            <coding>
                                <system value="http://snomed.info/sct"/>
                                <code value="23173011000036104"/>
                                <display value="aspirin 100 mg tablet"/>
                            </coding>
                            <text value="DOCUSATE SENNA(TAB) 50 mg, Coloxyl and Senna"/>
                        </code>
                    </Medication>
                </contained>

                <extension url="http://hl7.org.au/fhir/StructureDefinition/author-role">
                    <valueReference>
                        <reference value="#2be6504a-160a-4cb0-ac4c-4b5aa503085d"/>
                    </valueReference>
                </extension>
                <!-- TODO: where to record "interim" as the status? -->
                <status value="current"/>
                <mode value="snapshot"/>
                <title value="Ceased medicines list"/>
                <code>
                    <coding>
                        <system value="https://healthterminologies.gov.au/fhir/CodeSystem/nctis-data-components-1"/>
                        <code value="101.32027"/>
                        <display value="Ceased Medicines"/>
                    </coding>
                </code>
                <subject>
                    <reference value="#c7688ecf-5a6c-4a2f-ae2c-88a347278656"/>
                </subject>
                <date value="2019-09-02T10:00:15+10:00"/>
                <source>
                    <reference value="#4e2ed22a-95c8-4403-87fa-9a6a171ddc8b"/>
                </source>
                <!-- MEDICATION STATEMENT #1 -->
                <entry>
                    <flag>
                        <coding>
                            <system value="http://hl7.org.au/fhir/CodeSystem/medicine-item-change"/>
                            <code value="nochange"/>
                            <display value="Unchanged"/>
                        </coding>
                    </flag>
                    <item>
                        <reference value="#af3be636-c156-4172-8cbb-27856d5fc650"/>
                    </item>
                </entry>
                <!-- MEDICATION STATEMENT #2 -->
                <entry>
                    <flag>
                        <coding>
                            <system value="http://hl7.org.au/fhir/CodeSystem/medicine-item-change"/>
                            <code value="nochange"/>
                            <display value="Unchanged"/>
                        </coding>
                    </flag>
                    <item>
                        <reference value="#a8bd298d-40d0-4bd9-946b-6688f5f2f443"/>
                    </item>
                </entry>
                <!-- MEDICATION STATEMENT #3 -->
                <entry>
                    <extension url="http://hl7.org.au/fhir/StructureDefinition/change-description">
                        <valueString value="Infection"/>
                    </extension>
                    <flag>
                        <coding>
                            <system value="http://hl7.org.au/fhir/CodeSystem/medicine-item-change"/>
                            <code value="new"/>
                            <display value="New"/>
                        </coding>
                        <text value="New medicine"/>
                    </flag>
                    <item>
                        <reference value="#e558d94a-e4ba-4095-8d2e-74b9df14a9d1"/>
                    </item>
                </entry>
            </List>
        </resource>
    </entry>
</Bundle>
