<?xml version="1.0" encoding="UTF-8"?>

<!-- Conversion of the CDA example 'SML01_Example.xml -->

<Bundle xmlns="http://hl7.org/fhir">
    <id value="e32a01d0-2610-4c99-ba46-9732aa975d41"/>
    <meta>
        <lastUpdated value="2018-12-11T12:30:00+10:00"/>
    </meta>
    <identifier>
        <system value="urn:ietf:rfc:3986"/>
        <value value="urn:uuid:835e61af-124c-4e0a-b4e2-82abf4071e6e"/>
    </identifier>
    <type value="document"/>

    <!-- COMPOSITION -->
    <entry>
        <!-- TODO get new value -->
        <fullUrl value="urn:uuid:ff0gh111a-cc0f-4c3d-a4cd-a35ceafff999"/>
        <resource>
            <Composition xmlns="http://hl7.org/fhir">
                <!-- TODO get new value -->
                <id value="c6f90150-465c-4c16-8e99-c4efbda29036"/>
                <meta>
                    <profile value="http://ns.electronichealth.net.au/ci/fhir/3.0/StructureDefinition/composition-sml-prac-1"/>
                </meta>
                <language value="en-AU"/>
                <text>
                    <status value="additional"/>
                    <div xmlns="http://www.w3.org/1999/xhtml" lang="en-AU">

                        <table style="border-collapse:collapse;border-spacing:0;width:100%;">
                            <tr>
                                <th style="border-collapse:collapse;border-spacing:0;font-family:Arial, sans-serif;padding:10px 5px;border-style:solid;border-width:1px;overflow:hidden;word-break:normal;border-color:black;font-weight:bold;font-size:20px;background-color:#333333;color:#ffffff;border:none;text-align:center;vertical-align:top" colspan="4">Pharmacist Shared Medicines List</th>
                            </tr>
                            <tr>
                                <td style="border-collapse:collapse;border-spacing:0;font-family:Arial, sans-serif;font-size:14px;padding:10px 5px;border-style:solid;border-width:1px;overflow:hidden;word-break:normal;border-color:black;font-weight:bold;background-color:#333333;color:#ffffff;border-color:#000000;text-align:center;vertical-align:top" colspan="4">11 Dec 2018</td>
                            </tr>
                            <tr>
                                <td style="border-collapse:collapse;border-spacing:0;font-family:Arial, sans-serif;font-size:14px;padding:10px 5px;border-style:solid;border-width:1px;overflow:hidden;word-break:normal;border-color:black;background-color:#333333;color:#ffffff;border-color:#000000;text-align:center;vertical-align:top">FRANK GOODPATIENT</td>
                                <td style="border-collapse:collapse;border-spacing:0;font-family:Arial, sans-serif;font-size:14px;padding:10px 5px;border-style:solid;border-width:1px;overflow:hidden;word-break:normal;border-color:black;background-color:#333333;color:#ffffff;border-color:#000000;text-align:center;vertical-align:top">DoB 24 Mar 1981 (37 yrs) </td>
                                <td style="border-collapse:collapse;border-spacing:0;font-family:Arial, sans-serif;font-size:14px;padding:10px 5px;border-style:solid;border-width:1px;overflow:hidden;word-break:normal;border-color:black;background-color:#333333;color:#ffffff;border-color:#000000;text-align:center;vertical-align:top">Gender MALE</td>
                                <td style="border-collapse:collapse;border-spacing:0;font-family:Arial, sans-serif;font-size:14px;padding:10px 5px;border-style:solid;border-width:1px;overflow:hidden;word-break:normal;border-color:black;background-color:#333333;color:#ffffff;border-color:#000000;text-align:center;vertical-align:top">IHI 8003608833357361 </td>
                            </tr>
                        </table>
                        <h3>Tes Health Service</h3>
                        <p><b>Pharmacist:</b> Mosenna Joanne (Pharmacist)</p>
                        <p><b>Phone:</b> 9804 6688</p>
                        <p><b>Email:</b> joanne.mosenna@test.teshealth.com.au</p>

                        <h3 style="color:red">Allergies and Adverse Reaction</h3>
                        <table style="border-collapse:collapse;border-spacing:0;width:100%;">
                            <tr>
                                <th style="border-collapse:collapse;border-spacing:0;font-family:Arial, sans-serif;font-size:14px;font-weight:normal;padding:10px 5px;border-style:solid;border-width:1px;overflow:hidden;word-break:normal;border-color:black;font-weight:bold;background-color:#9b9b9b;border-color:#000000;text-align:left;vertical-align:top">Substance/Agent</th>
                                <th style="border-collapse:collapse;border-spacing:0;font-family:Arial, sans-serif;font-size:14px;font-weight:normal;padding:10px 5px;border-style:solid;border-width:1px;overflow:hidden;word-break:normal;border-color:black;font-weight:bold;background-color:#9b9b9b;border-color:#000000;text-align:left;vertical-align:top">Reaction Type</th>
                                <th style="border-collapse:collapse;border-spacing:0;font-family:Arial, sans-serif;font-size:14px;font-weight:normal;padding:10px 5px;border-style:solid;border-width:1px;overflow:hidden;word-break:normal;border-color:black;font-weight:bold;background-color:#9b9b9b;border-color:#000000;text-align:left;vertical-align:top">Reaction</th>
                                <th style="border-collapse:collapse;border-spacing:0;font-family:Arial, sans-serif;font-size:14px;font-weight:normal;padding:10px 5px;border-style:solid;border-width:1px;overflow:hidden;word-break:normal;border-color:black;font-weight:bold;background-color:#9b9b9b;border-color:#000000;text-align:left;vertical-align:top">Reaction Onset Date</th>
                            </tr>
                            <tr>
                                <td style="border-collapse:collapse;border-spacing:0;font-family:Arial, sans-serif;font-size:14px;padding:10px 5px;border-style:solid;border-width:1px;overflow:hidden;word-break:normal;border-color:black;border-color:#000000;text-align:left;vertical-align:top">ibuprofen</td>
                                <td style="border-collapse:collapse;border-spacing:0;font-family:Arial, sans-serif;font-size:14px;padding:10px 5px;border-style:solid;border-width:1px;overflow:hidden;word-break:normal;border-color:black;border-color:#000000;text-align:left;vertical-align:top">Allergic reaction</td>
                                <td style="border-collapse:collapse;border-spacing:0;font-family:Arial, sans-serif;font-size:14px;padding:10px 5px;border-style:solid;border-width:1px;overflow:hidden;word-break:normal;border-color:black;border-color:#000000;text-align:left;vertical-align:top">Anaphylaxis</td>
                                <td style="border-collapse:collapse;border-spacing:0;font-family:Arial, sans-serif;font-size:14px;padding:10px 5px;border-style:solid;border-width:1px;overflow:hidden;word-break:normal;border-color:black;border-color:#000000;text-align:left;vertical-align:top">October 2016</td>
                            </tr>
                        </table>
                        <h3>Current medicines</h3>
                        <table style="border-collapse:collapse;border-spacing:0;width:100%;">
                            <tr>
                                <th style="border-collapse:collapse;border-spacing:0;font-family:Arial, sans-serif;font-size:14px;font-weight:normal;padding:10px 5px;border-style:solid;border-width:1px;overflow:hidden;word-break:normal;border-color:black;font-weight:bold;background-color:#9b9b9b;border-color:#000000;text-align:left;vertical-align:top">Medicine</th>
                                <th style="border-collapse:collapse;border-spacing:0;font-family:Arial, sans-serif;font-size:14px;font-weight:normal;padding:10px 5px;border-style:solid;border-width:1px;overflow:hidden;word-break:normal;border-color:black;font-weight:bold;background-color:#9b9b9b;border-color:#000000;text-align:left;vertical-align:top">Brand Name</th>
                                <th style="border-collapse:collapse;border-spacing:0;font-family:Arial, sans-serif;font-size:14px;font-weight:normal;padding:10px 5px;border-style:solid;border-width:1px;overflow:hidden;word-break:normal;border-color:black;font-weight:bold;background-color:#9b9b9b;border-color:#000000;text-align:left;vertical-align:top">Direction</th>
                                <th style="border-collapse:collapse;border-spacing:0;font-family:Arial, sans-serif;font-size:14px;font-weight:normal;padding:10px 5px;border-style:solid;border-width:1px;overflow:hidden;word-break:normal;border-color:black;font-weight:bold;background-color:#9b9b9b;border-color:#000000;text-align:left;vertical-align:top">Medicine Purpose</th>
                                <th style="border-collapse:collapse;border-spacing:0;font-family:Arial, sans-serif;font-size:14px;font-weight:normal;padding:10px 5px;border-style:solid;border-width:1px;overflow:hidden;word-break:normal;border-color:black;font-weight:bold;background-color:#9b9b9b;border-color:#000000;text-align:left;vertical-align:top">Medicine Status</th>
                                <th style="border-collapse:collapse;border-spacing:0;font-family:Arial, sans-serif;font-size:14px;font-weight:normal;padding:10px 5px;border-style:solid;border-width:1px;overflow:hidden;word-break:normal;border-color:black;font-weight:bold;background-color:#9b9b9b;border-color:#000000;text-align:left;vertical-align:top">Expected End Date</th>
                                <th style="border-collapse:collapse;border-spacing:0;font-family:Arial, sans-serif;font-size:14px;font-weight:normal;padding:10px 5px;border-style:solid;border-width:1px;overflow:hidden;word-break:normal;border-color:black;font-weight:bold;background-color:#9b9b9b;border-color:#000000;text-align:left;vertical-align:top">Special Instructions</th>
                                <th style="border-collapse:collapse;border-spacing:0;font-family:Arial, sans-serif;font-size:14px;font-weight:normal;padding:10px 5px;border-style:solid;border-width:1px;overflow:hidden;word-break:normal;border-color:black;font-weight:bold;background-color:#9b9b9b;border-color:#000000;text-align:left;vertical-align:top">Medicine Image</th>
                                <th style="border-collapse:collapse;border-spacing:0;font-family:Arial, sans-serif;font-size:14px;font-weight:normal;padding:10px 5px;border-style:solid;border-width:1px;overflow:hidden;word-break:normal;border-color:black;font-weight:bold;background-color:#9b9b9b;border-color:#000000;text-align:left;vertical-align:top">Physical Description</th>
                            </tr>
                            <tr>
                                <td style="border-collapse:collapse;border-spacing:0;font-family:Arial, sans-serif;font-size:14px;padding:10px 5px;border-style:solid;border-width:1px;overflow:hidden;word-break:normal;border-color:black;border-color:#000000;text-align:left;vertical-align:top"/>
                                <td style="border-collapse:collapse;border-spacing:0;font-family:Arial, sans-serif;font-size:14px;padding:10px 5px;border-style:solid;border-width:1px;overflow:hidden;word-break:normal;border-color:black;border-color:#000000;text-align:left;vertical-align:top">Ferro-Grad C</td>
                                <td style="border-collapse:collapse;border-spacing:0;font-family:Arial, sans-serif;font-size:14px;padding:10px 5px;border-style:solid;border-width:1px;overflow:hidden;word-break:normal;border-color:black;border-color:#000000;text-align:left;vertical-align:top">Take one tablet daily</td>
                                <td style="border-collapse:collapse;border-spacing:0;font-family:Arial, sans-serif;font-size:14px;padding:10px 5px;border-style:solid;border-width:1px;overflow:hidden;word-break:normal;border-color:black;border-color:#000000;text-align:left;vertical-align:top">Iron supplement</td>
                                <td style="border-collapse:collapse;border-spacing:0;font-family:Arial, sans-serif;font-size:14px;padding:10px 5px;border-style:solid;border-width:1px;overflow:hidden;word-break:normal;border-color:black;border-color:#000000;text-align:left;vertical-align:top">Unchanged</td>
                                <td style="border-collapse:collapse;border-spacing:0;font-family:Arial, sans-serif;font-size:14px;padding:10px 5px;border-style:solid;border-width:1px;overflow:hidden;word-break:normal;border-color:black;border-color:#000000;text-align:left;vertical-align:top"/>
                                <td style="border-collapse:collapse;border-spacing:0;font-family:Arial, sans-serif;font-size:14px;padding:10px 5px;border-style:solid;border-width:1px;overflow:hidden;word-break:normal;border-color:black;border-color:#000000;text-align:left;vertical-align:top"/>
                                <td style="border-collapse:collapse;border-spacing:0;font-family:Arial, sans-serif;font-size:14px;padding:10px 5px;border-style:solid;border-width:1px;overflow:hidden;word-break:normal;border-color:black;border-color:#000000;text-align:left;vertical-align:top"/>
                                <td style="border-collapse:collapse;border-spacing:0;font-family:Arial, sans-serif;font-size:14px;padding:10px 5px;border-style:solid;border-width:1px;overflow:hidden;word-break:normal;border-color:black;border-color:#000000;text-align:left;vertical-align:top"/>
                            </tr>
                            <tr>
                                <td style="border-collapse:collapse;border-spacing:0;font-family:Arial, sans-serif;font-size:14px;padding:10px 5px;border-style:solid;border-width:1px;overflow:hidden;word-break:normal;border-color:black;border-color:#000000;text-align:left;vertical-align:top">Amoxicillin 875 mg + clavulanic acid 125 mg tablet</td>
                                <td style="border-collapse:collapse;border-spacing:0;font-family:Arial, sans-serif;font-size:14px;padding:10px 5px;border-style:solid;border-width:1px;overflow:hidden;word-break:normal;border-color:black;border-color:#000000;text-align:left;vertical-align:top">Augmentin Duo Forte</td>
                                <td style="border-collapse:collapse;border-spacing:0;font-family:Arial, sans-serif;font-size:14px;padding:10px 5px;border-style:solid;border-width:1px;overflow:hidden;word-break:normal;border-color:black;border-color:#000000;text-align:left;vertical-align:top">Take one tablet twice a day</td>
                                <td style="border-collapse:collapse;border-spacing:0;font-family:Arial, sans-serif;font-size:14px;padding:10px 5px;border-style:solid;border-width:1px;overflow:hidden;word-break:normal;border-color:black;border-color:#000000;text-align:left;vertical-align:top">Infection</td>
                                <td style="border-collapse:collapse;border-spacing:0;font-family:Arial, sans-serif;font-size:14px;padding:10px 5px;border-style:solid;border-width:1px;overflow:hidden;word-break:normal;border-color:black;border-color:#000000;text-align:left;vertical-align:top">New</td>
                                <td style="border-collapse:collapse;border-spacing:0;font-family:Arial, sans-serif;font-size:14px;padding:10px 5px;border-style:solid;border-width:1px;overflow:hidden;word-break:normal;border-color:black;border-color:#000000;text-align:left;vertical-align:top">20/01/2019</td>
                                <td style="border-collapse:collapse;border-spacing:0;font-family:Arial, sans-serif;font-size:14px;padding:10px 5px;border-style:solid;border-width:1px;overflow:hidden;word-break:normal;border-color:black;border-color:#000000;text-align:left;vertical-align:top"/>
                                <td style="border-collapse:collapse;border-spacing:0;font-family:Arial, sans-serif;font-size:14px;padding:10px 5px;border-style:solid;border-width:1px;overflow:hidden;word-break:normal;border-color:black;border-color:#000000;text-align:left;vertical-align:top"/>
                                <td style="border-collapse:collapse;border-spacing:0;font-family:Arial, sans-serif;font-size:14px;padding:10px 5px;border-style:solid;border-width:1px;overflow:hidden;word-break:normal;border-color:black;border-color:#000000;text-align:left;vertical-align:top"/>
                            </tr>
                            <tr>
                                <td style="border-collapse:collapse;border-spacing:0;font-family:Arial, sans-serif;font-size:14px;padding:10px 5px;border-style:solid;border-width:1px;overflow:hidden;word-break:normal;border-color:black;border-color:#000000;text-align:left;vertical-align:top">Metformin 500mg tablet</td>
                                <td style="border-collapse:collapse;border-spacing:0;font-family:Arial, sans-serif;font-size:14px;padding:10px 5px;border-style:solid;border-width:1px;overflow:hidden;word-break:normal;border-color:black;border-color:#000000;text-align:left;vertical-align:top">Sandoz</td>
                                <td style="border-collapse:collapse;border-spacing:0;font-family:Arial, sans-serif;font-size:14px;padding:10px 5px;border-style:solid;border-width:1px;overflow:hidden;word-break:normal;border-color:black;border-color:#000000;text-align:left;vertical-align:top">Take one tablet twice a day</td>
                                <td style="border-collapse:collapse;border-spacing:0;font-family:Arial, sans-serif;font-size:14px;padding:10px 5px;border-style:solid;border-width:1px;overflow:hidden;word-break:normal;border-color:black;border-color:#000000;text-align:left;vertical-align:top">Reduce blood sugar</td>
                                <td style="border-collapse:collapse;border-spacing:0;font-family:Arial, sans-serif;font-size:14px;padding:10px 5px;border-style:solid;border-width:1px;overflow:hidden;word-break:normal;border-color:black;border-color:#000000;text-align:left;vertical-align:top"/>
                                <td style="border-collapse:collapse;border-spacing:0;font-family:Arial, sans-serif;font-size:14px;padding:10px 5px;border-style:solid;border-width:1px;overflow:hidden;word-break:normal;border-color:black;border-color:#000000;text-align:left;vertical-align:top"/>
                                <td style="border-collapse:collapse;border-spacing:0;font-family:Arial, sans-serif;font-size:14px;padding:10px 5px;border-style:solid;border-width:1px;overflow:hidden;word-break:normal;border-color:black;border-color:#000000;text-align:left;vertical-align:top"/>
                                <td style="border-collapse:collapse;border-spacing:0;font-family:Arial, sans-serif;font-size:14px;padding:10px 5px;border-style:solid;border-width:1px;overflow:hidden;word-break:normal;border-color:black;border-color:#000000;text-align:left;vertical-align:top">
                                    <img alt="image"
                                        src="data:image/jpeg;base64,"
                                    />
                                </td>
                                <td style="border-collapse:collapse;border-spacing:0;font-family:Arial, sans-serif;font-size:14px;padding:10px 5px;border-style:solid;border-width:1px;overflow:hidden;word-break:normal;border-color:black;border-color:#000000;text-align:left;vertical-align:top">White and round with 227 imprint</td>
                            </tr>
                            <tr>
                                <td style="border-collapse:collapse;border-spacing:0;font-family:Arial, sans-serif;font-size:14px;padding:10px 5px;border-style:solid;border-width:1px;overflow:hidden;word-break:normal;border-color:black;border-color:#000000;text-align:left;vertical-align:top">Multi-vitamins</td>
                                <td style="border-collapse:collapse;border-spacing:0;font-family:Arial, sans-serif;font-size:14px;padding:10px 5px;border-style:solid;border-width:1px;overflow:hidden;word-break:normal;border-color:black;border-color:#000000;text-align:left;vertical-align:top"/>
                                <td style="border-collapse:collapse;border-spacing:0;font-family:Arial, sans-serif;font-size:14px;padding:10px 5px;border-style:solid;border-width:1px;overflow:hidden;word-break:normal;border-color:black;border-color:#000000;text-align:left;vertical-align:top">Take one tablet daily</td>
                                <td style="border-collapse:collapse;border-spacing:0;font-family:Arial, sans-serif;font-size:14px;padding:10px 5px;border-style:solid;border-width:1px;overflow:hidden;word-break:normal;border-color:black;border-color:#000000;text-align:left;vertical-align:top"/>
                                <td style="border-collapse:collapse;border-spacing:0;font-family:Arial, sans-serif;font-size:14px;padding:10px 5px;border-style:solid;border-width:1px;overflow:hidden;word-break:normal;border-color:black;border-color:#000000;text-align:left;vertical-align:top"/>
                                <td style="border-collapse:collapse;border-spacing:0;font-family:Arial, sans-serif;font-size:14px;padding:10px 5px;border-style:solid;border-width:1px;overflow:hidden;word-break:normal;border-color:black;border-color:#000000;text-align:left;vertical-align:top"/>
                                <td style="border-collapse:collapse;border-spacing:0;font-family:Arial, sans-serif;font-size:14px;padding:10px 5px;border-style:solid;border-width:1px;overflow:hidden;word-break:normal;border-color:black;border-color:#000000;text-align:left;vertical-align:top"/>
                                <td style="border-collapse:collapse;border-spacing:0;font-family:Arial, sans-serif;font-size:14px;padding:10px 5px;border-style:solid;border-width:1px;overflow:hidden;word-break:normal;border-color:black;border-color:#000000;text-align:left;vertical-align:top"/>
                                <td style="border-collapse:collapse;border-spacing:0;font-family:Arial, sans-serif;font-size:14px;padding:10px 5px;border-style:solid;border-width:1px;overflow:hidden;word-break:normal;border-color:black;border-color:#000000;text-align:left;vertical-align:top"/>
                            </tr>
                            <tr>
                                <td style="border-collapse:collapse;border-spacing:0;font-family:Arial, sans-serif;font-size:14px;padding:10px 5px;border-style:solid;border-width:1px;overflow:hidden;word-break:normal;border-color:black;border-color:#000000;text-align:left;vertical-align:top">Paracetamol 665mg caplet</td>
                                <td style="border-collapse:collapse;border-spacing:0;font-family:Arial, sans-serif;font-size:14px;padding:10px 5px;border-style:solid;border-width:1px;overflow:hidden;word-break:normal;border-color:black;border-color:#000000;text-align:left;vertical-align:top">Panadol Osteo</td>
                                <td style="border-collapse:collapse;border-spacing:0;font-family:Arial, sans-serif;font-size:14px;padding:10px 5px;border-style:solid;border-width:1px;overflow:hidden;word-break:normal;border-color:black;border-color:#000000;text-align:left;vertical-align:top">Take two caplets every 6 to 8 hours when required</td>
                                <td style="border-collapse:collapse;border-spacing:0;font-family:Arial, sans-serif;font-size:14px;padding:10px 5px;border-style:solid;border-width:1px;overflow:hidden;word-break:normal;border-color:black;border-color:#000000;text-align:left;vertical-align:top">Osteoarthritis, pain relief</td>
                                <td style="border-collapse:collapse;border-spacing:0;font-family:Arial, sans-serif;font-size:14px;padding:10px 5px;border-style:solid;border-width:1px;overflow:hidden;word-break:normal;border-color:black;border-color:#000000;text-align:left;vertical-align:top"/>
                                <td style="border-collapse:collapse;border-spacing:0;font-family:Arial, sans-serif;font-size:14px;padding:10px 5px;border-style:solid;border-width:1px;overflow:hidden;word-break:normal;border-color:black;border-color:#000000;text-align:left;vertical-align:top"/>
                                <td style="border-collapse:collapse;border-spacing:0;font-family:Arial, sans-serif;font-size:14px;padding:10px 5px;border-style:solid;border-width:1px;overflow:hidden;word-break:normal;border-color:black;border-color:#000000;text-align:left;vertical-align:top">No more than 6 caplets in 24 hours</td>
                                <td style="border-collapse:collapse;border-spacing:0;font-family:Arial, sans-serif;font-size:14px;padding:10px 5px;border-style:solid;border-width:1px;overflow:hidden;word-break:normal;border-color:black;border-color:#000000;text-align:left;vertical-align:top"/>
                                <td style="border-collapse:collapse;border-spacing:0;font-family:Arial, sans-serif;font-size:14px;padding:10px 5px;border-style:solid;border-width:1px;overflow:hidden;word-break:normal;border-color:black;border-color:#000000;text-align:left;vertical-align:top"/>
                            </tr>
                            <tr>
                                <td style="border-collapse:collapse;border-spacing:0;font-family:Arial, sans-serif;font-size:14px;padding:10px 5px;border-style:solid;border-width:1px;overflow:hidden;word-break:normal;border-color:black;border-color:#000000;text-align:left;vertical-align:top">Warfarin sodium 5 mg tablet</td>
                                <td style="border-collapse:collapse;border-spacing:0;font-family:Arial, sans-serif;font-size:14px;padding:10px 5px;border-style:solid;border-width:1px;overflow:hidden;word-break:normal;border-color:black;border-color:#000000;text-align:left;vertical-align:top">Coumadin</td>
                                <td style="border-collapse:collapse;border-spacing:0;font-family:Arial, sans-serif;font-size:14px;padding:10px 5px;border-style:solid;border-width:1px;overflow:hidden;word-break:normal;border-color:black;border-color:#000000;text-align:left;vertical-align:top">Take as directed by your doctor at night</td>
                                <td style="border-collapse:collapse;border-spacing:0;font-family:Arial, sans-serif;font-size:14px;padding:10px 5px;border-style:solid;border-width:1px;overflow:hidden;word-break:normal;border-color:black;border-color:#000000;text-align:left;vertical-align:top">Blood thining</td>
                                <td style="border-collapse:collapse;border-spacing:0;font-family:Arial, sans-serif;font-size:14px;padding:10px 5px;border-style:solid;border-width:1px;overflow:hidden;word-break:normal;border-color:black;border-color:#000000;text-align:left;vertical-align:top">Witheld</td>
                                <td style="border-collapse:collapse;border-spacing:0;font-family:Arial, sans-serif;font-size:14px;padding:10px 5px;border-style:solid;border-width:1px;overflow:hidden;word-break:normal;border-color:black;border-color:#000000;text-align:left;vertical-align:top"/>
                                <td style="border-collapse:collapse;border-spacing:0;font-family:Arial, sans-serif;font-size:14px;padding:10px 5px;border-style:solid;border-width:1px;overflow:hidden;word-break:normal;border-color:black;border-color:#000000;text-align:left;vertical-align:top"/>
                                <td style="border-collapse:collapse;border-spacing:0;font-family:Arial, sans-serif;font-size:14px;padding:10px 5px;border-style:solid;border-width:1px;overflow:hidden;word-break:normal;border-color:black;border-color:#000000;text-align:left;vertical-align:top"/>
                                <td style="border-collapse:collapse;border-spacing:0;font-family:Arial, sans-serif;font-size:14px;padding:10px 5px;border-style:solid;border-width:1px;overflow:hidden;word-break:normal;border-color:black;border-color:#000000;text-align:left;vertical-align:top">Peach.Round.Imprint.</td>
                            </tr>
                        </table>

                        <h3>Ceased medicines</h3>
                        <table style="border-collapse:collapse;border-spacing:0;width:100%;">
                            <tr>
                                <th style="border-collapse:collapse;border-spacing:0;font-family:Arial, sans-serif;font-size:14px;font-weight:normal;padding:10px 5px;border-style:solid;border-width:1px;overflow:hidden;word-break:normal;border-color:black;font-weight:bold;background-color:#9b9b9b;border-color:#000000;text-align:left;vertical-align:top">Ceased medicine</th>
                                <th style="border-collapse:collapse;border-spacing:0;font-family:Arial, sans-serif;font-size:14px;font-weight:normal;padding:10px 5px;border-style:solid;border-width:1px;overflow:hidden;word-break:normal;border-color:black;font-weight:bold;background-color:#9b9b9b;border-color:#000000;text-align:left;vertical-align:top">Reason for ceasing medication</th>
                                <th style="border-collapse:collapse;border-spacing:0;font-family:Arial, sans-serif;font-size:14px;font-weight:normal;padding:10px 5px;border-style:solid;border-width:1px;overflow:hidden;word-break:normal;border-color:black;font-weight:bold;background-color:#9b9b9b;border-color:#000000;text-align:left;vertical-align:top">Ceased date</th>
                            </tr>
                            <tr>
                                <td style="border-collapse:collapse;border-spacing:0;font-family:Arial, sans-serif;font-size:14px;padding:10px 5px;border-style:solid;border-width:1px;overflow:hidden;word-break:normal;border-color:black;border-color:#000000;text-align:left;vertical-align:top">Paracetamol 500 mg tablet</td>
                                <td style="border-collapse:collapse;border-spacing:0;font-family:Arial, sans-serif;font-size:14px;padding:10px 5px;border-style:solid;border-width:1px;overflow:hidden;word-break:normal;border-color:black;border-color:#000000;text-align:left;vertical-align:top">Duplicated medicine</td>
                                <td style="border-collapse:collapse;border-spacing:0;font-family:Arial, sans-serif;font-size:14px;padding:10px 5px;border-style:solid;border-width:1px;overflow:hidden;word-break:normal;border-color:black;border-color:#000000;text-align:left;vertical-align:top">Dec 2018</td>
                            </tr>
                            <tr>
                                <td style="border-collapse:collapse;border-spacing:0;font-family:Arial, sans-serif;font-size:14px;padding:10px 5px;border-style:solid;border-width:1px;overflow:hidden;word-break:normal;border-color:black;border-color:#000000;text-align:left;vertical-align:top">Ibuprofen</td>
                                <td style="border-collapse:collapse;border-spacing:0;font-family:Arial, sans-serif;font-size:14px;padding:10px 5px;border-style:solid;border-width:1px;overflow:hidden;word-break:normal;border-color:black;border-color:#000000;text-align:left;vertical-align:top">Allergic reaction</td>
                                <td style="border-collapse:collapse;border-spacing:0;font-family:Arial, sans-serif;font-size:14px;padding:10px 5px;border-style:solid;border-width:1px;overflow:hidden;word-break:normal;border-color:black;border-color:#000000;text-align:left;vertical-align:top"/>
                            </tr>
                        </table>
                        <p>Packed medicines: No</p>
                        <p>Additional comments: Please review this list with your pharmacist on or soon after 02/April/2019.</p>
                        <p>Healthcare setting:Community pharmacy</p>
                    </div>
                </text>
                <extension url="http://hl7.org.au/fhir/StructureDefinition/composition-author-role">
                    <valueReference>
                        <reference value="urn:uuid:eebd7c94-e124-4c2b-95dc-a6aebbe7bb4d"/>
                    </valueReference>
                </extension>
                <status value="final"/>
                <type>
                    <coding>
                        <system value="http://loinc.org"/>
                        <code value="56445-0"/>
                        <display value="Medication summary"/>
                    </coding>
                </type>
                <subject>
                    <reference value="urn:uuid:43acc1fd-9f9d-4f2f-8649-c290ac7ff847"/>
                </subject>
                <encounter>
                    <reference value="urn:uuid:038f9aaa-6c3d-4681-b9de-455de06a86d3"/>
                </encounter>
                <date value="2018-12-11T12:30:00+10:00"/>
                <author>
                    <reference value="urn:uuid:6312677b-2e4a-4841-a986-915905e01931"/>
                </author>
                <title value="Pharmacist Shared Medicines List"/>
                <attester>
                    <mode value="legal"/>
                    <time value="2018-12-11T12:30:00+10:00"/>
                    <party>
                        <reference value="urn:uuid:6312677b-2e4a-4841-a986-915905e01931"/>
                    </party>
                </attester>
                <custodian>
                    <reference value="urn:uuid:24391534-dbe5-44f0-af74-07ca016e7446"/>
                </custodian>
                <section>
                    <title value="Medications"/>
                    <code>
                        <coding>
                            <system value="http://loinc.org"/>
                            <code value="10160-0"/>
                            <display value="History of Medication use Narrative"/>
                        </coding>
                    </code>
                    <text>
                        <status value="additional"/>
                        <div xmlns="http://www.w3.org/1999/xhtml">
                            <table>
                                <caption>Current medicines</caption>
                                <thead>
                                    <tr>
                                        <th>Medicine</th>
                                        <th>Brand name</th>
                                        <th>Direction</th>
                                        <th>Medicine purpose</th>
                                        <th>Medicine status</th>
                                        <th>Expected end date</th>
                                        <th>Special instructions</th>
                                        <th>Medicine Image</th>
                                        <th>Physical Description</th>
                                    </tr>
                                </thead>
                                <tbody>
                                    <tr id="medicationstatement-ferro-grad-c">
                                        <td/>
                                        <td>Ferro-Grad C</td>
                                        <td>Take one tablet daily</td>
                                        <td>Iron Supplement</td>
                                        <td>Unchanged</td>
                                        <td/>
                                        <td/>
                                        <td/>
                                        <td/>
                                    </tr>
                                    <tr id="medicationstatement-amoxicillin-875mg">
                                        <td>Amoxicillin 875 mg + clavunalic acid 125 mg tablet</td>
                                        <td>Augmentin Duo Forte</td>
                                        <td>Take one tablet twice a day</td>
                                        <td>Infection</td>
                                        <td>New</td>
                                        <td>20/01/2019</td>
                                        <td/>
                                        <td/>
                                        <td/>
                                    </tr>
                                    <tr id="medicationstatement-metformin-500mg">
                                        <td>Metformin 500mg tablet</td>
                                        <td>Sandoz</td>
                                        <td>Take one tablet twice a day</td>
                                        <td>Reduce blood sugar</td>
                                        <td>Dose changed</td>
                                        <td/>
                                        <td/>
                                        <td>insert link</td>
                                        <td>White and round with 227 imprinted</td>
                                    </tr>
                                    <tr id="medicationstatement-multi-vitamins">
                                        <td>Multi-vitamins</td>
                                        <td/>
                                        <td>Take one tablet daily</td>
                                        <td/>
                                        <td/>
                                        <td/>
                                        <td/>
                                        <td/>
                                        <td/>
                                    </tr>
                                    <tr id="medicationstatement-paracetamol-665mg">
                                        <td>Paracetamol 665 mg caplet</td>
                                        <td>Panadol Osteo</td>
                                        <td>Take two caplets every 6 to 8 hours when required</td>
                                        <td>Osteoarthritis, pain relief</td>
                                        <td/>
                                        <td/>
                                        <td>No more than 6 caplets in 24 hours</td>
                                        <td/>
                                        <td/>
                                    </tr>
                                    <tr id="medicationstatement-warfarin">
                                        <td>Warfarin sodium 5 mg tablet</td>
                                        <td>Coumadin</td>
                                        <td>Take as directed by your doctor at night</td>
                                        <td>Blood thinning</td>
                                        <td>Withheld</td>
                                        <td/>
                                        <td/>
                                        <td/>
                                        <td>Peach.Round.Imprinted.</td>
                                    </tr>
                                </tbody>
                            </table>
                        </div>
                    </text>
                    <entry>
                        <reference value="urn:uuid:e3677c50-8940-4793-bc43-72a33e5b6460"/>
                    </entry>
                </section>
                <section>
                    <title value="Allergies"/>
                    <code>
                        <coding>
                            <system value="http://loinc.org"/>
                            <code value="48765-2"/>
                            <display value="Allergies and adverse reactions Document"/>
                        </coding>
                    </code>
                    <text>
                        <status value="additional"/>
                        <div xmlns="http://www.w3.org/1999/xhtml">
                            <table>
                                <caption>Allergies and Adverse Reactions</caption>
                                <thead>
                                    <tr>
                                        <th>Substance/Agent</th>
                                        <th>Reaction Type</th>
                                        <th>Reaction</th>
                                        <th>Reaction Onset Date</th>
                                    </tr>
                                </thead>
                                <tbody>
                                    <tr>
                                        <td>ibuprofen</td>
                                        <td>Allergic reaction</td>
                                        <td>Anaphylaxis</td>
                                        <td>October 2016</td>
                                    </tr>
                                </tbody>
                            </table>
                        </div>
                    </text>
                    <entry>
                        <reference value="urn:uuid:7f834da9-63f5-4a66-a847-a32c366701ff"/>
                    </entry>
                </section>
            </Composition>
        </resource>
    </entry>

    <!-- PATIENT (subject)-->
    <entry>
        <fullUrl value="urn:uuid:43acc1fd-9f9d-4f2f-8649-c290ac7ff847"/>
        <resource>
            <Patient xmlns="http://hl7.org/fhir">
                <!-- TODO new id -->
                <id value="43acc1fd-9f9d-4f2f-8649-c290ac7ff847"/>
                <meta>
                    <profile value="http://ns.electronichealth.net.au/ci/fhir/3.0/StructureDefinition/patient-ident-1"/>
                </meta>
                <extension url="http://hl7.org.au/fhir/StructureDefinition/indigenous-status">
                    <valueCoding>
                        <system value="https://healthterminologies.gov.au/fhir/CodeSystem/australian-indigenous-status-1"/>
                        <code value="4"/>
                        <display value="Neither Aboriginal nor Torres Strait Islander origin"/>
                    </valueCoding>
                </extension>
                <identifier>
                    <type>
                        <coding>
                            <system value="http://hl7.org/fhir/v2/0203"/>
                            <code value="NI"/>
                            <display value="National unique individual identifier"/>
                        </coding>
                    </type>
                    <system value="http://ns.electronichealth.net.au/id/hi/ihi/1.0"/>
                    <value value="8003608333563104"/>
                </identifier>
                <name>
                    <family value="PRIEST"/>
                    <given value="Mac"/>
                </name>
                <gender value="male"/>
                <birthDate value="1989-03-09"/>
                <generalPractitioner>
                    <reference value="urn:uuid:b738af06-18f5-48b8-a0d6-96d0e97c0634"/>
                </generalPractitioner>
            </Patient>
        </resource>
    </entry>

    <!-- PRACTITIONER (author) -->
    <entry>
        <fullUrl value="urn:uuid:6312677b-2e4a-4841-a986-915905e01931"/>
        <resource>
            <Practitioner xmlns="http://hl7.org/fhir">
                <id value="6312677b-2e4a-4841-a986-915905e01931"/>
                <meta>
                    <profile value="http://ns.electronichealth.net.au/ci/fhir/3.0/StructureDefinition/practitioner-ident-1"/>
                </meta>
                <identifier>
                    <type>
                        <coding>
                            <system value="http://hl7.org/fhir/v2/0203"/>
                            <code value="NPI"/>
                            <display value="National provider identifier"/>
                        </coding>
                        <text value="HPI-I"/>
                    </type>
                    <system value="http://ns.electronichealth.net.au/id/hi/hpii/1.0"/>
                    <value value="8003611566708354"/>
                </identifier>
                <name>
                    <family value="Sinclair"/>
                    <given value="Zane"/>
                    <prefix value="Mr."/>
                </name>
                <telecom>
                    <system value="email"/>
                    <value value="zsin@gmail.com"/>
                    <use value="work"/>
                </telecom>
            </Practitioner>
        </resource>
    </entry>

    <!-- PRACTITIONERROLE  (author role) -->
    <entry>
        <fullUrl value="urn:uuid:eebd7c94-e124-4c2b-95dc-a6aebbe7bb4d"/>
        <resource>
            <PractitionerRole xmlns="http://hl7.org/fhir">
                <id value="eebd7c94-e124-4c2b-95dc-a6aebbe7bb4d"/>
                <meta>
                    <profile value="http://ns.electronichealth.net.au/ci/fhir/3.0/StructureDefinition/practitionerrole-withpractitionerident-1"/>
                </meta>
                <identifier>
                    <type>
                        <coding>
                            <system value="http://hl7.org/fhir/v2/0203"/>
                            <code value="NPI"/>
                            <display value="National provider identifier"/>
                        </coding>
                        <text value="HPI-I"/>
                    </type>
                    <system value="http://ns.electronichealth.net.au/id/hi/hpii/1.0"/>
                    <value value="8003611566708354"/>
                </identifier>
                <practitioner>
                    <reference value="urn:uuid:6312677b-2e4a-4841-a986-915905e01931"/>
                </practitioner>
                <organization>
                    <reference value="urn:uuid:24391534-dbe5-44f0-af74-07ca016e7446"/>
                </organization>
                <code>
                    <coding>
                        <system value="http://www.abs.gov.au/ausstats/abs@.nsf/mf/1220.0"/>
                        <code value="251513"/>
                        <display value="Retail Pharmacist"/>
                    </coding>
                    <text value="Pharmacist"/>
                </code>
                <telecom>
                    <system value="email"/>
                    <value value="zsin@gmail.com"/>
                    <use value="work"/>
                </telecom>
            </PractitionerRole>
        </resource>
    </entry>

    <!-- ORGANIZATION  (author role) -->
    <entry>
        <fullUrl value="urn:uuid:24391534-dbe5-44f0-af74-07ca016e7446"/>
        <resource>
            <Organization xmlns="http://hl7.org/fhir">
                <id value="24391534-dbe5-44f0-af74-07ca016e7446"/>
                <meta>
                    <profile value="http://ns.electronichealth.net.au/ci/fhir/3.0/StructureDefinition/organization-dh-base-1"/>
                </meta>
                <identifier>
                    <type>
                        <coding>
                            <system value="http://hl7.org.au/fhir/v2/0203"/>
                            <code value="NOI"/>
                        </coding>
                        <text value="HPI-O"/>
                    </type>
                    <system value="http://ns.electronichealth.net.au/id/hi/hpio/1.0"/>
                    <value value="8003629900033370"/>
                </identifier>
                <type>
                    <coding>
                        <system value="http://www.abs.gov.au/ausstats/abs@.nsf/mf/1292.0"/>
                        <code value="4271"/>
                        <display value="Retail Pharmacy"/>
                    </coding>
                </type>
                <name value="Test Org - Retail Pharmacy"/>
                <address>
                    <use value="work"/>
                    <line value="570 Whatcha St"/>
                    <city value="GLEBE"/>
                    <state value="NSW"/>
                    <postalCode value="2037"/>
                    <country value="AU"/>
                </address>
            </Organization>
        </resource>
    </entry>

    <!-- ORGANIZATION  (general practitioner of the patient) -->
    <!-- TODO where does <functionCode code="PCP"/> go? ie "primary care provider" -->
    <entry>
        <fullUrl value="urn:uuid:b738af06-18f5-48b8-a0d6-96d0e97c0634"/>
        <resource>
            <Organization xmlns="http://hl7.org/fhir">
                <id value="b738af06-18f5-48b8-a0d6-96d0e97c0634"/>
                <type>
                    <coding>
                        <system value="http://hl7.org/fhir/organization-type"/>
                        <code value="prov"/>
                        <display value="Healthcare Provider"/>
                    </coding>
                </type>
                <name value="Test Medical Centre"/>
            </Organization>
        </resource>
    </entry>

    <!-- ENCOUNTER -->
    <entry>
        <fullUrl value="urn:uuid:038f9aaa-6c3d-4681-b9de-455de06a86d3"/>
        <resource>
            <Encounter xmlns="http://hl7.org/fhir">
                <id value="038f9aaa-6c3d-4681-b9de-455de06a86d3"/>
                <meta>
                    <profile value="http://ns.electronichealth.net.au/ci/fhir/3.0/StructureDefinition/encounter-es-1"/>
                </meta>
                <status value="finished"/>
                <type>
                    <coding>
                        <system value="http://snomed.info/sct"/>
                        <code value="1348961000168104"/>
                        <display value="Community pharmacy medicines review"/>
                    </coding>
                    <text value="Community pharmacy medicine review"/>
                </type>
                <subject>
                    <reference value="urn:uuid:43acc1fd-9f9d-4f2f-8649-c290ac7ff847"/>
                </subject>
                <period>
                    <start value="2018-12-11T10:00:00+10:00"/>
                    <end value="2018-12-11T12:30:00+10:00"/>
                </period>
            </Encounter>
        </resource>
    </entry>

    <!-- LIST -->
    <entry>
        <fullUrl value="urn:uuid:e3677c50-8940-4793-bc43-72a33e5b6460"/>
        <resource>
            <List xmlns="http://hl7.org/fhir">
                <id value="e3677c50-8940-4793-bc43-72a33e5b6460"/>
                <meta>
                    <profile value="http://ns.electronichealth.net.au/ci/fhir/3.0/StructureDefinition/list-sml-pracchanges-1"/>
                </meta>
                <language value="en-AU"/>
                <text>
                    <status value="additional"/>
                    <div xmlns="http://www.w3.org/1999/xhtml" lang="en-AU">
                        <table>
                            <caption>Current medicines</caption>
                            <thead>
                                <tr>
                                    <th>Medicine</th>
                                    <th>Brand name</th>
                                    <th>Direction</th>
                                    <th>Medicine purpose</th>
                                    <th>Medicine status</th>
                                    <th>Expected end date</th>
                                    <th>Special instructions</th>
                                    <th>Medicine Image</th>
                                    <th>Physical Description</th>
                                </tr>
                            </thead>
                            <tbody>
                                <!--<tr ID="medicationstatement-ferro-grad-c">-->
                                <tr>
                                    <td/>
                                    <td>Ferro-Grad C</td>
                                    <td>Take one tablet daily</td>
                                    <td>Iron Supplement</td>
                                    <td>Unchanged</td>
                                    <td/>
                                    <td/>
                                    <td/>
                                    <td/>
                                </tr>
                                <!--<tr ID="medicationstatement-amoxicillin-875mg">-->
                                <tr>
                                    <td>Amoxicillin 875 mg + clavunalic acid 125 mg tablet</td>
                                    <td>Augmentin Duo Forte</td>
                                    <td>Take one tablet twice a day</td>
                                    <td>Infection</td>
                                    <td>New</td>
                                    <td>20/01/2019</td>
                                    <td/>
                                    <td/>
                                    <td/>
                                </tr>
                                <!--<tr ID="medicationstatement-metformin-500mg">-->
                                <tr>
                                    <td>Metformin 500mg tablet</td>
                                    <td>Sandoz</td>
                                    <td>Take one tablet twice a day</td>
                                    <td>Reduce blood sugar</td>
                                    <td>Dose changed</td>
                                    <td/>
                                    <td/>
                                    <td>insert link</td>
                                    <td>White and round with 227 imprinted</td>
                                </tr>
                                <!--<tr ID="medicationstatement-multi-vitamins">-->
                                <tr>
                                    <td>Multi-vitamins</td>
                                    <td/>
                                    <td>Take one tablet daily</td>
                                    <td/>
                                    <td/>
                                    <td/>
                                    <td/>
                                    <td/>
                                    <td/>
                                </tr>
                                <!--<tr ID="medicationstatement-paracetamol-665mg">-->
                                <tr>
                                    <td>Paracetamol 665 mg caplet</td>
                                    <td>Panadol Osteo</td>
                                    <td>Take two caplets every 6 to 8 hours when required</td>
                                    <td>Osteoarthritis, pain relief</td>
                                    <td/>
                                    <td/>
                                    <td>No more than 6 caplets in 24 hours</td>
                                    <td/>
                                    <td/>
                                </tr>
                                <!--<tr ID="medicationstatement-warfarin">-->
                                <tr>
                                    <td>Warfarin sodium 5 mg tablet</td>
                                    <td>Coumadin</td>
                                    <td>Take as directed by your doctor at night</td>
                                    <td>Blood thinning</td>
                                    <td>Withheld</td>
                                    <td/>
                                    <td/>
                                    <td/>
                                    <td>Peach.Round.Imprinted.</td>
                                </tr>
                            </tbody>
                        </table>
                        <table>
                            <caption>Ceased medicines</caption>
                            <thead>
                                <tr>
                                    <th>Medicine</th>
                                    <th>Reason for ceasing medicine</th>
                                    <th>Ceased date</th>
                                </tr>
                            </thead>
                            <tbody>
                                <!--<tr ID="medicationstatement-paracetamol-500mg">-->
                                <tr>
                                    <td/>
                                    <td>Paracetamol 500mg tablet</td>
                                    <td>Duplicated medicine</td>
                                    <td>Dec 2018</td>
                                </tr>
                                <!--<tr ID="medicationstatement-ibuprofen">-->
                                <tr>
                                    <td>Ibuprofen</td>
                                    <td>Allergic Reaction</td>
                                    <td/>
                                </tr>
                            </tbody>
                        </table>
                        <p>Packed medicines: No</p>
                        <p>Please review this list with your pharmacist on or soon after 02/Apr/2019.</p>
                        <p>Community pharmacy medicine review</p>
                    </div>
                </text>
                <extension url="http://hl7.org.au/fhir/StructureDefinition/author-role">
                    <valueReference>
                        <reference value="urn:uuid:eebd7c94-e124-4c2b-95dc-a6aebbe7bb4d"/>
                    </valueReference>
                </extension>
                <status value="current"/>
                <mode value="snapshot"/>
                <title value="Medicines List"/>
                <code>
                    <coding>
                        <system value="http://loinc.org"/>
                        <code value="10160-0"/>
                        <display value="History of Medication use Narrative"/>
                    </coding>
                </code>
                <subject>
                    <reference value="urn:uuid:43acc1fd-9f9d-4f2f-8649-c290ac7ff847"/>
                </subject>
                <encounter>
                    <reference value="urn:uuid:038f9aaa-6c3d-4681-b9de-455de06a86d3"/>
                </encounter>
                <date value="2018-12-11T12:30:00+10:00"/>
                <source>
                    <reference value="urn:uuid:6312677b-2e4a-4841-a986-915905e01931"/>
                </source>
                <note>
                    <text value="Packed medicines: No"/>
                </note>
                <note>
                    <text value="Please review this list with your pharmacist on or soon
                        after 02/Apr/2019."/>
                </note>
                <!-- MEDICATION STATEMENT #1 -->
                <entry>
                    <flag>
                        <coding>
                            <system value="http://hl7.org.au/fhir/CodeSystem/medicine-item-change"/>
                            <code value="nochange"/>
                            <display value="Unchanged"/>
                        </coding>
                    </flag>
                    <item>
                        <reference value="urn:uuid:32def593-e104-4cee-b8f5-d1f923efd94b"/>
                    </item>
                </entry>
                <!-- MEDICATION STATEMENT #2 -->
                <entry>
                    <extension url="http://hl7.org.au/fhir/StructureDefinition/change-description">
                        <valueString value="Infection"/>
                    </extension>
                    <flag>
                        <coding>
                            <system value="http://hl7.org.au/fhir/CodeSystem/medicine-item-change"/>
                            <code value="new"/>
                            <display value="New"/>
                        </coding>
                    </flag>
                    <item>
                        <reference value="urn:uuid:f02c54ad-3562-4f7b-8956-de16769a2a88"/>
                    </item>
                </entry>
                <!-- MEDICATION STATEMENT #3 -->
                <entry>
                    <extension url="http://hl7.org.au/fhir/StructureDefinition/change-description">
                        <valueString value="Dose changed"/>
                    </extension>
                    <flag>
                        <coding>
                            <system value="http://hl7.org.au/fhir/CodeSystem/medicine-item-change"/>
                            <code value="amended"/>
                            <display value="Amended"/>
                        </coding>
                    </flag>
                    <item>
                        <reference value="urn:uuid:f27faa7d-0433-484a-94ab-5a3f966bd7b1"/>
                    </item>
                </entry>
                <!-- MEDICATION STATEMENT #4 -->
                <entry>
                    <flag>
                        <coding>
                            <system value="http://hl7.org.au/fhir/CodeSystem/medicine-item-change"/>
                            <code value="nochange"/>
                            <display value="Unchanged"/>
                        </coding>
                    </flag>
                    <item>
                        <reference value="urn:uuid:006679bd-44a9-49df-82ba-a41db0cd6298"/>
                    </item>
                </entry>
                <!-- MEDICATION STATEMENT #5 -->
                <entry>
                    <flag>
                        <coding>
                            <system value="http://hl7.org.au/fhir/CodeSystem/medicine-item-change"/>
                            <code value="nochange"/>
                            <display value="Unchanged"/>
                        </coding>
                    </flag>
                    <item>
                        <reference value="urn:uuid:d14a5c15-87c9-4cf8-9047-657189898273"/>
                    </item>
                </entry>
                <!-- MEDICATION STATEMENT #6 -->
                <entry>
                    <flag>
                        <coding>
                            <system value="http://hl7.org.au/fhir/CodeSystem/medicine-item-change"/>
                            <code value="suspended"/>
                            <display value="Suspended"/>
                        </coding>
                    </flag>
                    <item>
                        <reference value="urn:uuid:ce9d0158-5f77-4c30-8aad-79500eb2c16f"/>
                    </item>
                </entry>
                <!-- MEDICATION STATEMENT #7 -->
                <entry>
                    <extension url="http://hl7.org.au/fhir/StructureDefinition/change-description">
                        <valueString value="Duplicated medicine"/>
                    </extension>
                    <flag>
                        <coding>
                            <system value="http://hl7.org.au/fhir/CodeSystem/medicine-item-change"/>
                            <code value="ceased"/>
                        </coding>
                    </flag>
                    <item>
                        <reference value="urn:uuid:17affe2a-6496-437d-8d1a-22baae41a5ae"/>
                    </item>
                </entry>
                <!-- MEDICATION STATEMENT #8 -->
                <entry>
                    <extension url="http://hl7.org.au/fhir/StructureDefinition/change-description">
                        <valueString value="Allergic reaction"/>
                    </extension>
                    <flag>
                        <coding>
                            <system value="http://hl7.org.au/fhir/CodeSystem/medicine-item-change"/>
                            <code value="ceased"/>
                        </coding>
                    </flag>
                    <item>
                        <reference value="urn:uuid:3f99bc18-7edf-4e2a-9eae-86629b56d06e"/>
                    </item>
                </entry>
            </List>
        </resource>
    </entry>

    <!-- MEDICATION STATEMENT #1 -->
    <entry>
        <fullUrl value="urn:uuid:32def593-e104-4cee-b8f5-d1f923efd94b"/>
        <resource>
            <MedicationStatement xmlns="http://hl7.org/fhir">
                <id value="32def593-e104-4cee-b8f5-d1f923efd94b"/>
                <meta>
                    <profile value="http://ns.electronichealth.net.au/ci/fhir/3.0/StructureDefinition/medicationstatement-detailed-1"/>
                </meta>
                <status value="active"/>
                <medicationReference>
                    <reference value="urn:uuid:27046ef9-d808-46d4-a028-0ef182b7a8b2"/>
                </medicationReference>
                <subject>
                    <reference value="urn:uuid:43acc1fd-9f9d-4f2f-8649-c290ac7ff847"/>
                </subject>
                <taken value="y"/>
                <reasonCode>
                    <text value="Iron supplement"/>
                </reasonCode>
                <dosage>
                    <text value="Take one tablet daily"/>
                </dosage>
            </MedicationStatement>
        </resource>
    </entry>

    <!-- MEDICATION #1 -->
    <entry>
        <fullUrl value="urn:uuid:27046ef9-d808-46d4-a028-0ef182b7a8b2"/>
        <resource>
            <Medication xmlns="http://hl7.org/fhir">
                <id value="27046ef9-d808-46d4-a028-0ef182b7a8b2"/>
                <meta>
                    <profile value="http://ns.electronichealth.net.au/ci/fhir/3.0/StructureDefinition/medication-dh-base-1"/>
                </meta>
                <!--  Ferro-Grad C-->
                <code>
                    <coding>
                        <!-- TODO: keep this extension?? I think NOT -->
                        <extension url="http://hl7.org.au/fhir/StructureDefinition/medication-type">
                            <valueCoding>
                                <system value="http://hl7.org.au/fhir/CodeSystem/medication-type"/>
                                <code value="BPD"/>
                                <display value="Branded product with no strengths or form"/>
                            </valueCoding>
                        </extension>
                        <system value="http://snomed.info/sct"/>
                        <code value="53373011000036103"/>
                        <display value="Ferro-Grad C"/>
                    </coding>
                    <text value="Ferro-Grad C"/>
                </code>
            </Medication>
        </resource>
    </entry>

    <!-- MEDICATION STATEMENT #2 -->
    <entry>
        <fullUrl value="urn:uuid:f02c54ad-3562-4f7b-8956-de16769a2a88"/>
        <resource>
            <MedicationStatement xmlns="http://hl7.org/fhir">
                <id value="f02c54ad-3562-4f7b-8956-de16769a2a88"/>
                <meta>
                    <profile value="http://ns.electronichealth.net.au/ci/fhir/3.0/StructureDefinition/medicationstatement-detailed-1"/>
                </meta>
                <status value="active"/>
                <medicationReference>
                    <reference value="urn:uuid:c09df0db-3050-4b62-bb27-7c9b743d59bd"/>
                </medicationReference>
                <effectivePeriod>
                    <start value="2018-12-10"/>
                    <end value="2019-01-20"/>
                </effectivePeriod>
                <subject>
                    <reference value="urn:uuid:43acc1fd-9f9d-4f2f-8649-c290ac7ff847"/>
                </subject>
                <taken value="y"/>
                <reasonCode>
                    <text value="Infection"/>
                </reasonCode>
                <dosage>
                    <text value="Take one tablet twice a day"/>
                </dosage>
            </MedicationStatement>
        </resource>
    </entry>

    <!-- MEDICATION #2 -->
    <entry>
        <fullUrl value="urn:uuid:c09df0db-3050-4b62-bb27-7c9b743d59bd"/>
        <resource>
            <Medication xmlns="http://hl7.org/fhir">
                <id value="c09df0db-3050-4b62-bb27-7c9b743d59bd"/>
                <meta>
                    <profile value="http://ns.electronichealth.net.au/ci/fhir/3.0/StructureDefinition/medication-dh-base-1"/>
                </meta>
                <extension url="http://hl7.org.au/fhir/StructureDefinition/medication-brand-name">
                    <valueString value="Augmentin Duo Forte"/>
                </extension>
                <extension url="http://hl7.org.au/fhir/StructureDefinition/medication-generic-name">
                    <valueString value="Amoxicillin 875 mg + clavulanic acid 125 mg tablet"/>
                </extension>
                <code>
                    <text value="Augmentin Duo Forte"/>
                </code>
            </Medication>
        </resource>
    </entry>

    <!-- MEDICATION STATEMENT #3 -->
    <entry>
        <fullUrl value="urn:uuid:f27faa7d-0433-484a-94ab-5a3f966bd7b1"/>
        <resource>
            <MedicationStatement xmlns="http://hl7.org/fhir">
                <id value="f27faa7d-0433-484a-94ab-5a3f966bd7b1"/>
                <meta>
                    <profile value="http://ns.electronichealth.net.au/ci/fhir/3.0/StructureDefinition/medicationstatement-detailed-1"/>
                </meta>
                <status value="active"/>
                <medicationReference>
                    <reference value="urn:uuid:d45954e8-80ae-4610-b235-239e9d352799"/>
                </medicationReference>
                <subject>
                    <reference value="urn:uuid:43acc1fd-9f9d-4f2f-8649-c290ac7ff847"/>
                </subject>
                <taken value="y"/>
                <reasonCode>
                    <text value="Reduce blood sugar"/>
                </reasonCode>
                <dosage>
                    <text value="Take one tablet twice a day"/>
                </dosage>
            </MedicationStatement>
        </resource>
    </entry>

    <!-- MEDICATION #3 -->
    <entry>
        <fullUrl value="urn:uuid:d45954e8-80ae-4610-b235-239e9d352799"/>
        <resource>
            <Medication xmlns="http://hl7.org/fhir">
                <id value="d45954e8-80ae-4610-b235-239e9d352799"/>
                <meta>
                    <profile value="http://ns.electronichealth.net.au/ci/fhir/3.0/StructureDefinition/medication-dh-base-1"/>
                </meta>
                <extension url="http://hl7.org.au/fhir/StructureDefinition/medication-brand-name">
                    <valueString value="Sandoz"/>
                </extension>
                <code>
                    <coding>
                        <system value="http://snomed.info/sct"/>
                        <code value="23358011000036102"/>
                        <display value="metformin hydrochloride 500 mg tablet"/>
                    </coding>
                    <text value="Metformin 500mg tablet, Sandoz"/>
                </code>
            </Medication>
        </resource>
    </entry>

    <!-- MEDICATION STATEMENT #4 -->
    <entry>
        <fullUrl value="urn:uuid:006679bd-44a9-49df-82ba-a41db0cd6298"/>
        <resource>
            <MedicationStatement xmlns="http://hl7.org/fhir">
                <id value="006679bd-44a9-49df-82ba-a41db0cd6298"/>
                <meta>
                    <profile value="http://ns.electronichealth.net.au/ci/fhir/3.0/StructureDefinition/medicationstatement-detailed-1"/>
                </meta>
                <status value="active"/>
                <medicationReference>
                    <reference value="urn:uuid:4418bed2-2ae9-4d0a-9acd-d70ab8284c50"/>
                </medicationReference>
                <subject>
                    <reference value="urn:uuid:43acc1fd-9f9d-4f2f-8649-c290ac7ff847"/>
                </subject>
                <taken value="y"/>
                <dosage>
                    <text value="Take one tablet daily"/>
                </dosage>
            </MedicationStatement>
        </resource>
    </entry>

    <!-- MEDICATION #4 -->
    <entry>
        <fullUrl value="urn:uuid:4418bed2-2ae9-4d0a-9acd-d70ab8284c50"/>
        <resource>
            <Medication xmlns="http://hl7.org/fhir">
                <id value="4418bed2-2ae9-4d0a-9acd-d70ab8284c50"/>
                <meta>
                    <profile value="http://ns.electronichealth.net.au/ci/fhir/3.0/StructureDefinition/medication-dh-base-1"/>
                </meta>
                <extension url="http://hl7.org.au/fhir/StructureDefinition/medication-generic-name">
                    <valueString value="Multi-vitamins"/>
                </extension>
                <code>
                    <text value="Multi-vitamins"/>
                </code>
            </Medication>
        </resource>
    </entry>

    <!-- MEDICATION STATEMENT #5 -->
    <entry>
        <fullUrl value="urn:uuid:d14a5c15-87c9-4cf8-9047-657189898273"/>
        <resource>
            <MedicationStatement xmlns="http://hl7.org/fhir">
                <id value="d14a5c15-87c9-4cf8-9047-657189898273"/>
                <meta>
                    <profile value="http://ns.electronichealth.net.au/ci/fhir/3.0/StructureDefinition/medicationstatement-detailed-1"/>
                </meta>
                <status value="active"/>
                <medicationReference>
                    <reference value="urn:uuid:9574e2d4-863b-11e9-a159-526af7764f64"/>
                </medicationReference>
                <dateAsserted value="2018-12-11"/>
                <subject>
                    <reference value="urn:uuid:43acc1fd-9f9d-4f2f-8649-c290ac7ff847"/>
                </subject>
                <taken value="y"/>
                <reasonCode>
                    <text value="Osteoarthritis, pain relief"/>
                </reasonCode>
                <dosage>
                    <text value="Take two caplets every 6 to 8 hours when required"/>
                    <patientInstruction value="No more than 6 caplets in 24 hours"/>
                </dosage>
            </MedicationStatement>
        </resource>
    </entry>

    <!-- MEDICATION #5 -->
    <entry>
        <fullUrl value="urn:uuid:9574e2d4-863b-11e9-a159-526af7764f64"/>
        <resource>
            <Medication xmlns="http://hl7.org/fhir">
                <id value="9574e2d4-863b-11e9-a159-526af7764f64"/>
                <meta>
                    <profile value="http://ns.electronichealth.net.au/ci/fhir/3.0/StructureDefinition/medication-dh-base-1"/>
                </meta>
                <extension url="http://hl7.org.au/fhir/StructureDefinition/medication-brand-name">
                    <valueString value="Panadol Osteo"/>
                </extension>
                <extension url="http://hl7.org.au/fhir/StructureDefinition/medication-generic-name">
                    <valueString value="Paracetamol 665mg caplet"/>
                </extension>
                <code>
                    <text value="Panadol Osteo"/>
                </code>
            </Medication>
        </resource>
    </entry>

    <!-- MEDICATION STATEMENT #6 -->
    <entry>
        <fullUrl value="urn:uuid:ce9d0158-5f77-4c30-8aad-79500eb2c16f"/>
        <resource>
            <MedicationStatement xmlns="http://hl7.org/fhir">
                <id value="ce9d0158-5f77-4c30-8aad-79500eb2c16f"/>
                <meta>
                    <profile value="http://ns.electronichealth.net.au/ci/fhir/3.0/StructureDefinition/medicationstatement-detailed-1"/>
                </meta>
                <status value="active"/>
                <medicationReference>
                    <reference value="urn:uuid:19ae06e9-0242-41eb-b386-5c147b01e88f"/>
                </medicationReference>
                <subject>
                    <reference value="urn:uuid:43acc1fd-9f9d-4f2f-8649-c290ac7ff847"/>
                </subject>
                <taken value="y"/>
                <reasonCode>
                    <text value="Blood thining"/>
                </reasonCode>
                <dosage>
                    <text value="Take as directed by your doctor at night"/>
                </dosage>
            </MedicationStatement>
        </resource>
    </entry>

    <!-- MEDICATION #6 -->
    <entry>
        <fullUrl value="urn:uuid:19ae06e9-0242-41eb-b386-5c147b01e88f"/>
        <resource>
            <Medication xmlns="http://hl7.org/fhir">
                <id value="19ae06e9-0242-41eb-b386-5c147b01e88f"/>
                <meta>
                    <profile value="http://ns.electronichealth.net.au/ci/fhir/3.0/StructureDefinition/medication-dh-base-1"/>
                </meta>
                <extension url="http://hl7.org.au/fhir/StructureDefinition/medication-brand-name">
                    <valueString value="Coumadin"/>
                </extension>
                <code>
                    <coding>
                        <system value="http://snomed.info/sct"/>
                        <code value="22464011000036101"/>
                        <display value="warfarin sodium 5 mg tablet"/>
                    </coding>
                    <text value="Warfarin sodium 5 mg tablet, Coumadin"/>
                </code>
            </Medication>
        </resource>
    </entry>

    <!-- MEDICATION STATEMENT #7 -->
    <entry>
        <fullUrl value="urn:uuid:17affe2a-6496-437d-8d1a-22baae41a5ae"/>
        <resource>
            <MedicationStatement xmlns="http://hl7.org/fhir">
                <id value="17affe2a-6496-437d-8d1a-22baae41a5ae"/>
                <meta>
                    <profile value="http://ns.electronichealth.net.au/ci/fhir/3.0/StructureDefinition/medicationstatement-detailed-1"/>
                </meta>
                <status value="stopped"/>
                <medicationReference>
                    <reference value="urn:uuid:37c3cb4d-37cd-4e4e-985f-d1b8fd44fbb7"/>
                </medicationReference>
                <subject>
                    <reference value="urn:uuid:43acc1fd-9f9d-4f2f-8649-c290ac7ff847"/>
                </subject>
                <taken value="y"/>
                <dosage>
                    <text value="Two tablets every 4-6 hours when required"/>
                </dosage>
            </MedicationStatement>
        </resource>
    </entry>

    <!-- MEDICATION #7 -->
    <entry>
        <fullUrl value="urn:uuid:37c3cb4d-37cd-4e4e-985f-d1b8fd44fbb7"/>
        <resource>
            <Medication xmlns="http://hl7.org/fhir">
                <id value="37c3cb4d-37cd-4e4e-985f-d1b8fd44fbb7"/>
                <meta>
                    <profile value="http://ns.electronichealth.net.au/ci/fhir/3.0/StructureDefinition/medication-dh-base-1"/>
                </meta>
                <code>
                    <coding>
                        <system value="http://snomed.info/sct"/>
                        <code value="22464011000036101"/>
                        <display value="Paracetamol 500 mg tablet"/>
                    </coding>
                    <text value="Paracetamol 500 mg tablet"/>
                </code>
            </Medication>
        </resource>
    </entry>

    <!-- MEDICATION STATEMENT #8 -->
    <entry>
        <fullUrl value="urn:uuid:3f99bc18-7edf-4e2a-9eae-86629b56d06e"/>
        <resource>
            <MedicationStatement xmlns="http://hl7.org/fhir">
                <id value="3f99bc18-7edf-4e2a-9eae-86629b56d06e"/>
                <meta>
                    <profile value="http://ns.electronichealth.net.au/ci/fhir/3.0/StructureDefinition/medicationstatement-detailed-1"/>
                </meta>
                <status value="stopped"/>
                <medicationReference>
                    <reference value="Medication/2a506a7c-aab0-4af3-9ea3-3f47ebe16e3d"/>
                </medicationReference>
                <subject>
                    <reference value="urn:uuid:43acc1fd-9f9d-4f2f-8649-c290ac7ff847"/>
                </subject>
                <taken value="y"/>
                <dosage>
                    <text value="When needed"/>
                </dosage>
            </MedicationStatement>
        </resource>
    </entry>

    <!-- MEDICATION #8 -->
    <entry>
        <fullUrl value="urn:uuid:2a506a7c-aab0-4af3-9ea3-3f47ebe16e3d"/>
        <resource>
            <Medication xmlns="http://hl7.org/fhir">
                <id value="2a506a7c-aab0-4af3-9ea3-3f47ebe16e3d"/>
                <meta>
                    <profile value="http://ns.electronichealth.net.au/ci/fhir/3.0/StructureDefinition/medication-dh-base-1"/>
                </meta>
                <code>
                    <coding>
                        <system value="http://snomed.info/sct"/>
                        <code value="21885011000036105"/>
                        <display value="Ibuprofen"/>
                    </coding>
                    <text value="Ibuprofen"/>
                </code>
            </Medication>
        </resource>
    </entry>

    <!-- ALLERGIES -->
    <entry>
        <fullUrl value="urn:uuid:7f834da9-63f5-4a66-a847-a32c366701ff"/>
        <resource>
            <AllergyIntolerance xmlns="http://hl7.org/fhir">
                <id value="7f834da9-63f5-4a66-a847-a32c366701ff"/>
                <meta>
                    <profile value="http://ns.electronichealth.net.au/ci/fhir/3.0/StructureDefinition/allergyintolerance-summary-1"/>
                </meta>
                <clinicalStatus value="active"/>
                <verificationStatus value="unconfirmed"/>
                <type value="allergy"/>
                <code>
                    <coding>
                        <system value="http://snomed.info/sct"/>
                        <code value="21885011000036105"/>
                        <display value="Ibuprofen"/>
                    </coding>
                    <text value="ibuprofen"/>
                </code>
                <patient>
                    <reference value="urn:uuid:43acc1fd-9f9d-4f2f-8649-c290ac7ff847"/>
                </patient>
                <onsetDateTime value="2016-10"/>
                <reaction>
                    <substance>
                        <coding>
                            <system value="http://snomed.info/sct"/>
                            <code value="21885011000036105"/>
                            <display value="Ibuprofen"/>
                        </coding>
                        <text value="ibuprofen"/>
                    </substance>
                    <manifestation>
                        <coding>
                            <system value="http://snomed.info/sct"/>
                            <code value="39579001"/>
                            <display value="Anaphylaxis"/>
                        </coding>
                        <text value="Anaphylaxis"/>
                    </manifestation>
                </reaction>
            </AllergyIntolerance>
        </resource>
    </entry>

</Bundle>
