<?xml version="1.0" encoding="UTF-8"?>
<Bundle xmlns="http://hl7.org/fhir">
  <id value="3bb44f10-4350-498c-a629-4bf43df620e9"/>
  <meta>
    <lastUpdated value="2018-09-21T09:01:00+10:00"/>
  </meta>
  <identifier>
    <system value="urn:ietf:rfc:3986"/>
    <value value="a863c855-f4c9-4edf-b0f4-5edcbb6239be"/>
  </identifier>
  <type value="document"/>
  <!--    The Composition resource    -->
  <entry>
    <fullUrl value="urn:uuid:565b1e7e-01c1-4379-a3d6-6e21cdea43e9"/>
    <resource>
      <Composition>
        <id value="565b1e7e-01c1-4379-a3d6-6e21cdea43e9"/>
        <meta>
          <profile
            value="http://ns.electronichealth.net.au/ci/fhir/3.0/StructureDefinition/composition-es-1"
          />
        </meta>
        <language value="en-AU"/>
        <text>
          <status value="additional"/>
          <div xmlns="http://www.w3.org/1999/xhtml" lang = "en-AU">
            <p><b>Title</b>: Event Summary</p>          
            <p><b>Subject</b>: IHI = 8003608666701594; name =  Eliana Iglesias; birthDate = 20/08/1960; indigenous status = Not stated/inadequately
              described</p>
            <p><b>Status</b>: final</p>
            <p><b>Type</b>: Summary of episode note </p>
            <p><b>Date</b>: 19/07/2018</p>
            <p><b>Author</b>: HPI-I = 8003610000000000; name = Barry Helpman M.D.</p>
            <p><b>Author role</b>: General Practitioner; Medicare Provider Number:
              5544887B, HPI-I = 8003610000000000; Barry Helpman; Devonport Family
              Medicine Clinic</p>
            <p><b>Custodian</b>: name  = Devonport Family Medicine Clinic; ABN = 51824754455; email = reception@example.dfmc.com.au (WORK);</p>
          </div>
        </text>
        <extension url="http://hl7.org.au/fhir/StructureDefinition/composition-author-role">
          <valueReference>
            <reference
              value="http://ns.electronichealth.net.au/ci/fhir/3.0/StructureDefinition/practitionerrole-withpractitioner-1"
            />
          </valueReference>
        </extension>
        <status value="final"/>
        <type>
          <coding>
            <system value="http://loinc.org"/>
            <code value="34133-9"/>
            <display value="Summary of episode note"/>
          </coding>
        </type>
        <subject>
          <reference value="urn:uuid:792b4811-2ce7-4531-8893-af827175bcfe"/>
        </subject>
        <encounter>
          <reference value="urn:uuid:98900f15-67f8-48a1-9345-6d5968f2c23e"/>
        </encounter>
        <date value="2018-07-19"/>
        <author>
          <reference value="urn:uuid:40a94071-8373-4d53-a788-63b79c75a3c1"/>
        </author>
        <title value="Event Summary"/>
        <attester>
          <mode value="legal"/>
          <time value="2017-06-21T09:00:15+10:00"/>
          <party>
            <reference value="urn:uuid:40a94071-8373-4d53-a788-63b79c75a3c1"/>
          </party>
        </attester>
        <custodian>
          <reference value="urn:uuid:021fff67-c5ec-438f-9520-ce9bafee1306"/>
        </custodian>

        <!-- Event Details-->
        <section>
          <title value="Event Details"/>
          <code>
            <coding>
              <system
                value="https://healthterminologies.gov.au/fhir/CodeSystem/nctis-data-components-1"/>
              <code value="101.16672"/>
              <display value="Event Overview"/>
            </coding>
          </code>
          <text>
            <status value="additional"/>
            <div xmlns="http://www.w3.org/1999/xhtml">
              <h1>Event Overview</h1>
              <p>Patient presented with a headache, fever, sore
              throat. Patient advised she has no known allergies and was prescribed amoxicillin
              500mg 3/day for 5 days, and augmentin forte 1 tablet twice a day for five days during
              this event. Patient advised that usually takes sumatriptan for migraine; they took one
              tablet during the event, and during the event they were given one tablet to take home.</p>
            </div>
          </text>
          <entry>
            <reference value="urn:uuid:98900f15-67f8-48a1-9345-6d5968f2c23e"/>
          </entry>
        </section>

        <!--Allergies and Adverse Reactions-->
        <section>
          <title value="Allergies and Adverse Reactions"/>
          <code>
            <coding>
              <system value="http://loinc.org"/>
              <code value="48765-2"/>
              <display value="Allergies and adverse reactions Document"/>
            </coding>
          </code>
          <text>
            <status value="additional"/>
            <div xmlns="http://www.w3.org/1999/xhtml">
              <p>No known medication allergies.</p>
            </div>
          </text>
          <entry>
            <reference value="urn:uuid:a5e03840-1be4-43e0-acd2-c9e288adc4f9"/>
          </entry>
        </section>

        <!-- Medications-->
        <section>
          <title value="Medications"/>
          <code>
            <coding>
              <system value="http://loinc.org"/>
              <code value="10160-0"/>
              <display value="History of Medication use Narrative"/>
            </coding>
          </code>
          <text>
            <status value="additional"/>
            <div xmlns="http://www.w3.org/1999/xhtml" lang="en-AU">
              <table border="1">
                <caption>Medications</caption>
                <thead>
                  <tr>
                    <th>Medicine</th>                    
                    <th>Directions</th>
                    <th>Medicine purpose</th>
                    <th>Status</th>
                    <th>Flag</th>
                    <th>Change-description</th>
                  </tr>
                </thead>
                <tbody>
                  <tr>
                    <td>AMOXCILLIN 500mg TABLETS</td>
                    <td>Take 3 tablets a day for 5 days.</td>
                    <td>For headache, fever, sore throat.</td>
                    <td>Not taken</td>
                    <td>New prescription</td>
                    <td>Prescription for amoxicillin 500 mg</td>
                    <td/>
                  </tr>
                  <tr>
                    <td>AUGMENTIN FORTE TABLETS</td>
                    <td>Take 1 tablet twice a day for 5 days.</td>
                    <td>For headache, fever, sore throat.</td>
                    <td>Not taken</td>
                    <td>New prescription</td>
                    <td>Prescription for AUGMENTIN FORTE</td>
                    <td/>
                  </tr>                  
                  <tr>
                    <td>SUMATRIPAN TABLETS</td>
                    <td></td>
                    <td>For migraine.</td>
                    <td>Not taken</td>
                    <td></td>
                    <td></td>
                  </tr>
                  <tr>
                    <td>SUMATRIPAN TABLETS</td>
                    <td></td>
                    <td>For migraine.</td>
                    <td>Taken</td>
                    <td></td>
                    <td></td>
                    <td/>
                  </tr>
                </tbody>
              </table>
            </div>
          </text>
          <entry>
            <!-- known issue that the IG publisher fails to complete  -->
            <!-- when this reference is made to the actual list resource -->
            <!-- for now this 'placeholder' allows the publisher to run -->
            <!-- it should be "urn:uuid:fa11a4f8-9ecc-4a65-9643-74c3c8480f4" -->
            <reference value="urn:uuid:waiting-for-list-profile-to-be-fixed"/>
          </entry>
        </section>

        <!-- Medical History -->
        <section>
          <title value="Diagnoses/Interventions"/>
          <code>
            <coding>
              <system
                value="https://healthterminologies.gov.au/fhir/CodeSystem/nctis-data-components-1"/>
              <code value="101.16117"/>
              <display value="Medical History"/>
            </coding>
          </code>
          <text>
            <status value="additional"/>
            <div xmlns="http://www.w3.org/1999/xhtml" lang="en-AU">
              <p><b>condition</b>: headache</p>
              <p><b>condition</b>: fever</p>
              <p><b>condition</b>: sore throat</p>>
            </div>
          </text>
          <entry>
            <reference value="urn:uuid:f834bdcb-c535-49d8-8689-e00f6848af0d"/>
          </entry>
          <entry>
            <reference value="urn:uuid:24e42657-2230-44df-8bac-d19346a7f20b"/>
          </entry>
          <entry>
            <reference value="urn:uuid:9ceb1602-547f-4e3c-883d-a500c5e9d9255"/>
          </entry>
        </section>
      </Composition>
    </resource>
  </entry>

<!--PATIENT-->
  <entry>
    <fullUrl value="urn:uuid:792b4811-2ce7-4531-8893-af827175bcfe"/>
    <resource>
      <Patient xmlns="http://hl7.org/fhir">
        <id value="792b4811-2ce7-4531-8893-af827175bcfe"/>        
        <text>
          <status value="additional"/>
          <div xmlns="http://www.w3.org/1999/xhtml">
            <h2>Patient</h2>
            <p><b>Name</b>: Eliana Iglesias</p>
            <p><b>Identifier</b>: National unique individual identifier = 8003608666701594</p>            
            <p><b>Gender</b>: Female</p>
            <p><b>Date of birth</b>: 20/08/1960</p>
            <p><b>General Practitioner</b>: Barry Helpman M.D.; telecom = email
              bhelpman@example.devonportgp.com.au (work);</p>
            <p><b>Managing Organization</b>: Devonport Family Medicine Clinic; ABN =
              51824754455; telecom = email reception@example.dfmc.com.au (work);
              telecom = fax (03) 8543 5557 (work); telecom = phone (03) 8543 5556
              (work); address = LPO Box 235 Strahan, TAS 7468 (postal)></p>
            <p><b>indigenous status</b>: Not stated/inadequately described</p>
          </div>
        </text>
        <extension url="http://hl7.org.au/fhir/StructureDefinition/indigenous-status">
          <valueCoding>
            <system
              value="https://healthterminologies.gov.au/fhir/CodeSystem/australian-indigenous-status-1"/>
            <code value="9"/>
            <display value="Not stated/inadequately described"/>
          </valueCoding>
        </extension>
        <identifier>
          <type>
            <coding>
              <system value="http://hl7.org/fhir/v2/0203"/>
              <code value="NI"/>
              <display value="National unique individual identifier"/>
            </coding>
          </type>
          <system value="http://ns.electronichealth.net.au/id/hi/ihi/1.0"/>
          <value value="8003608666701594"/>
        </identifier>
        <name>
          <text value="Iliana Iglesias"/>
          <family value="Iglesias"/>
          <given value="Iliana"/>
        </name>
        <gender value="other"/>
        <birthDate value="1960-08-20">
        <extension
          url="http://hl7.org.au/fhir/StructureDefinition/date-accuracy-indicator">
          <valueCoding>
            <system
              value="https://healthterminologies.gov.au/fhir/CodeSystem/date-accuracy-indicator-1"/>
            <code value="AAE"/>
            <display value="Day and month are accurate, year is estimated"/>
          </valueCoding>
        </extension>
        <extension url="http://hl7.org/fhir/StructureDefinition/patient-birthTime">
          <valueDateTime value="1960-08-20T20:07:00+10:00"/>
        </extension>
        </birthDate>
        <generalPractitioner>
          <reference value="urn:uuid:40a94071-8373-4d53-a788-63b79c75a3c1"/>
        </generalPractitioner>
        <managingOrganization>
          <reference value="urn:uuid:021fff67-c5ec-438f-9520-ce9bafee1306"/>
        </managingOrganization>
      </Patient>
    </resource>
  </entry>

  <!-- PRACTITIONER-->
  <entry>
    <fullUrl value="urn:uuid:40a94071-8373-4d53-a788-63b79c75a3c1"/>
    <resource>
      <Practitioner xmlns="http://hl7.org/fhir">
        <id value="40a94071-8373-4d53-a788-63b79c75a3c1"/>       
        <text>
          <status value="additional"/>
          <div xmlns="http://www.w3.org/1999/xhtml">            
            <p><b>Name</b>: Barry Helpman (OFFICIAL)</p>
            <p><b>Identifier</b>: HPI-I = 8003610000000000</p>
            <p><b>Telecom</b>: bhelpman@example.devonportgp.com.au(WORK)</p>
            <p><b>Qualifications</b>: AHPRA qualification for General Practitioner = MED0000932850</p>
          </div>            
        </text>
        <identifier>
          <type>
            <coding>
              <system value="http://hl7.org/fhir/v2/0203"/>
              <code value="NPI"/>
              <display value="National provider identifier"/>
            </coding>
            <text value="HPI-I"/>
          </type>
          <system value="http://ns.electronichealth.net.au/id/hi/hpii/1.0"/>
          <value value="8003610000000000"/>
        </identifier>
        <name>
          <use value="official"/>
          <family value="Helpman"/>
          <given value="Barry"/>
          <suffix value="M.D."/>
        </name>
        <telecom>
          <system value="email"/>
          <value value="bhelpman@example.devonportgp.com.au"/>
          <use value="work"/>
        </telecom>
        <qualification>
          <identifier>
            <type>
              <coding>
                <system value="http://hl7.org.au/fhir/v2/0203"/>
                <code value="AHPRA"/>
                <display
                  value="Australian Health Practitioner Regulation Agency Registration Number"/>
              </coding>
              <text value="AHPRA Registration Number"/>
            </type>
            <system value="http://hl7.org.au/id/ahpra-registration-number"/>
            <value value="MED0000932850"/>
          </identifier>
          <code>
            <coding>
              <system value="http://www.abs.gov.au/ausstats/abs@.nsf/mf/1220.0"/>
              <code value="253111"/>
              <display value="General Medical Practitioner"/>
            </coding>
            <text value="AHPRA qualification for General Practitioner"/>
          </code>
          <issuer>
            <display value="AHPRA"/>
          </issuer>
        </qualification>
      </Practitioner>
    </resource>
  </entry>
  
  <!-- PRACTITIONERROLE -->
  <entry>
    <fullUrl value="urn:uuid:e99357bd-b6ad-4ae7-9d99-27cb929e48af"/>
    <resource>
      <PractitionerRole xmlns="http://hl7.org/fhir">
        <id value="e99357bd-b6ad-4ae7-9d99-27cb929e48af"/>        
        <text>
          <status value="additional"/>
          <div xmlns="http://www.w3.org/1999/xhtml" lang="en-AU">
            <h2>PractitionerRole</h2>
            <p><b>code</b>: General Practitioner</p>
            <p><b>identifier</b>: Medicare Provider Number = 5544887B</p>
            <p><b>identifier</b>: HPI-I = 8003610000000000</p>
            <p><b>practitioner</b>: Barry Helpman M.D.; telecom = email
              bhelpman@example.devonportgp.com.au (work); qualification = AHPRA
              qualification for General Practitioner</p>
            <p><b>organization</b>: Devonport Family Medicine Clinic; ABN = 51824754455;
              telecom = email reception@example.dfmc.com.au (work); telecom = fax (03)
              8543 5557 (work); telecom = phone (03) 8543 5556 (work); address = LPO
              Box 235 Strahan, TAS 7468 (postal)</p>
          </div>
        </text>
        <identifier>
          <type>
            <coding>
              <system value="http://hl7.org.au/fhir/v2/0203"/>
              <code value="UPIN"/>
            </coding>
            <text value="Medicare Provider Number"/>
          </type>
          <system value="http://ns.electronichealth.net.au/id/medicare-provider-number"/>
          <value value="5544887B"/>
        </identifier>
        <identifier>
          <type>
            <coding>
              <system value="http://hl7.org/fhir/v2/0203"/>
              <code value="NPI"/>
              <display value="National provider identifier"/>
            </coding>
            <text value="HPI-I"/>
          </type>
          <system value="http://ns.electronichealth.net.au/id/hi/hpii/1.0"/>
          <value value="8003610000000000"/>
        </identifier>
        <practitioner>
          <reference value="urn:uuid:7bfbb28b-e57b-4961-b5f9-4bfc5391b44a"/>
        </practitioner>
        <organization>
          <reference value="urn:uuid:2835b82a-9451-4db1-83c0-ae250f16bff9"/>
        </organization>
        <code>
          <coding>
            <system value="http://www.abs.gov.au/ausstats/abs@.nsf/mf/1220.0"/>
            <code value="253111"/>
            <display value="General Practitioner"/>
          </coding>
          <text value="GP"/>
        </code>
      </PractitionerRole>
    </resource>
  </entry>
 
  <!--    CUSTODIAN -->
  <entry>
    <fullUrl value="urn:uuid:021fff67-c5ec-438f-9520-ce9bafee1306"/>
    <resource>
      <Organization xmlns="http://hl7.org/fhir">
        <id value="021fff67-c5ec-438f-9520-ce9bafee130"/>       
        <text>
          <status value="additional"/>
          <div xmlns="http://www.w3.org/1999/xhtml">
            <p><b>Name</b>: Devonport Family Medicine Clinic</p>
            <p><b>Identifier</b>: ABN = 51824754455</p>           
            <p><b>Telecom</b>: reception@example.dfmc.com.au(WORK), fax: (03) 8543 5557(WORK), ph:
              (03) 8543 5556(WORK)</p>
            <p><b>Address</b>: LPO Box 235 Strahan TAS 7468 AU </p>
          </div>
        </text>
        <identifier>
          <type>
            <text value="ABN"/>
          </type>
          <system value="http://hl7.org.au/id/abn"/>
          <value value="51824754455"/>
        </identifier>
        <name value="Devonport Family Medicine Clinic"/>
        <telecom>
          <system value="email"/>
          <value value="reception@example.dfmc.com.au"/>
          <use value="work"/>
        </telecom>
        <telecom>
          <system value="fax"/>
          <value value="(03) 8543 5557"/>
          <use value="work"/>
        </telecom>
        <telecom>
          <system value="phone"/>
          <value value="(03) 8543 5556"/>
          <use value="work"/>
        </telecom>
        <address>
          <type value="postal"/>
          <line value="LPO Box 235"/>
          <city value="Strahan"/>
          <state value="TAS"/>
          <postalCode value="7468"/>
          <country value="AU"/>
        </address>
      </Organization>
    </resource>
  </entry>
  
  <!--List-->
  <entry>
    <fullUrl value="http://example.org/fa11a4f8-9ecc-4a65-9643-74c3c84880f4"/>
    <resource>
      <List xmlns="http://hl7.org/fhir">
        <id value="fa11a4f8-9ecc-4a65-9643-74c3c84880f4"/>   
        <!--The IG Publisher fails to run if the bundle example has a List resource with an Agency profile reference of "http://ns.electronichealth.net.au/ci/fhir/3.0/StructureDefinition/list-medseventchanges-1"-->
        <!--<meta>
          <profile
            value="http://ns.electronichealth.net.au/ci/fhir/3.0/StructureDefinition/list-medseventchanges-1"
          />
        </meta>-->
        <text>
          <status value="additional"/>
          <div xmlns="http://www.w3.org/1999/xhtml" lang="en-AU">
            <h2>List</h2>
            <p><b>status</b>: current</p>            
            <table border="1">
              <caption>Medication List</caption>
              <thead>
                <tr>
                  <th>Medicine</th>                    
                  <th>Directions</th>
                  <th>Medicine purpose</th>
                  <th>Status</th>
                  <th>Flag</th>
                  <th>Change-description</th>
                </tr>
              </thead>
              <tbody>
                <tr>
                  <td>AMOXCILLIN 500mg TABLETS</td>
                  <td>Take 3 tablets a day for 5 days.</td>
                  <td>For headache, fever, sore throat.</td>
                  <td>Not taken</td>
                  <td>New prescription</td>
                  <td>Prescription for amoxicillin 500 mg</td>
                  <td/>
                </tr>
                <tr>
                  <td>AUGMENTIN FORTE TABLETS</td>
                  <td>Take 1 tablet twice a day for 5 days.</td>
                  <td>For headache, fever, sore throat.</td>
                  <td>Not taken</td>
                  <td>New prescription</td>
                  <td>Prescription for AUGMENTIN FORTE</td>
                  <td/>
                </tr>                           
                <tr>
                  <td>SUMATRIPAN TABLETS</td>
                  <td></td>
                  <td>For migraine.</td>
                  <td>Not taken</td>
                  <td></td>
                  <td></td>
                </tr>
                <tr>
                  <td>SUMATRIPAN TABLETS</td>
                  <td></td>
                  <td>For migraine.</td>
                  <td>Taken</td>
                  <td></td>
                  <td></td>
                  <td/>
                </tr>
              </tbody>
            </table>
          </div>
        </text>
        
        <status value="current"/>
        <mode value="snapshot"/>
        <code>
          <coding>
            <system value="http://loinc.org"/>
            <code value="10160-0"/>            
          </coding>
        </code>
        <subject>
          <reference value="urn:uuid:792b4811-2ce7-4531-8893-af827175bcfe"/>
        </subject>
        <entry>
          <extension url="http://hl7.org.au/fhir/StructureDefinition/change-description">
            <valueString value="Prescription for headache, fever, sore throat"/>
          </extension>
          <flag>
            <coding>
              <system value="http://hl7.org.au/fhir/CodeSystem/medicine-item-change"/>
              <code value="prescribed"/>
              <display value="New prescription"/>
            </coding>
          </flag>
          <item>
            <reference value="urn:uuid:9db8a050-0c25-4192-834d-bca1da8ff250"/>
          </item>
        </entry>
        <entry>
          <extension url="http://hl7.org.au/fhir/StructureDefinition/change-description">
            <valueString value="Prescription for headache, fever, sore throat"/>
          </extension>
          <flag>
            <coding>
              <system value="http://hl7.org.au/fhir/CodeSystem/medicine-item-change"/>
              <code value="prescribed"/>
              <display value="New prescription"/>
            </coding>
          </flag>
          <item>
            <reference value="urn:uuid:fc257fb0-8325-4f85-b29f-4c100346f527"/>
          </item>
        </entry>
        <entry>          
          <item>
            <reference value="urn:uuid:32def593-e104-4cee-b8f5-d1f923efd94b"/>
          </item>
        </entry>
        <entry>          
          <item>
            <reference value="urn:uuid:710f5906-2444-4b6a-b841-d3e23434f228"/>
          </item>
        </entry>
      </List>
    </resource>
  </entry>

  <!--Encounter-->
  <entry>
    <fullUrl value="urn:uuid:98900f15-67f8-48a1-9345-6d5968f2c23e"/>
    <resource>
      <Encounter>
        <id value="98900f15-67f8-48a1-9345-6d5968f2c23e"/>
        <text>
          <status value="additional"/>
          <div xmlns="http://www.w3.org/1999/xhtml" lang = "en-AU">
            <h2>Encounter</h2>
            <p><b>encounter-description</b>: Patient presented with a headache, fever, sore
            throat. Patient advised she has no known allergies and was prescribed amoxicillin 500mg
            3/day for 5 days, and augmentin forte 1 tablet twice a day for five days during this
            event. Patient advised that usually takes sumatriptan for migraine; they took one tablet
            during the event, and during the event they were given one tablet to take home.</p>
            <p><b>status</b>: in-progress</p>
            <p><b>subject</b>: IHI = 8003608666701594; name =  Eliana Iglesias; birthDate = 20/08/1960; 
              indigenous status = Not stated/inadequately described</p>
            <p><b>start</b>: 02/04/2019</p>
            <p><b>end</b>: 08/04/2019</p>
          </div>
        </text>
        <extension url="http://hl7.org.au/fhir/StructureDefinition/encounter-description">
          <valueString
            value="Patient presented with a headache, fever,
            sore throat. Patient advised she has no known allergies and was prescribed amoxicillin
            500mg 3/day for 5 days, and augmentin forte 1 tablet twice a day for five days during
            this event. Patient advised that usually takes sumatriptan for migraine; they took one
            tablet during the event, and during the event they were given one tablet to take home."
          />
        </extension>
        <status value="in-progress"/>
        <subject>
          <reference value="urn:uuid:792b4811-2ce7-4531-8893-af827175bcfe"/>
        </subject>
        <period>
          <start value="2019-04-02"/>
          <end value="2019-04-08"/>
        </period>
      </Encounter>
    </resource>
  </entry>

  <!--    A MedicationStatement - Sumatripan (Completed)    -->
  <entry>
    <fullUrl value="urn:uuid:32def593-e104-4cee-b8f5-d1f923efd94b"/>
    <resource>
      <MedicationStatement xmlns="http://hl7.org/fhir">
        <id value="32def593-e104-4cee-b8f5-d1f923efd94b"/>
        <text>
          <status value="additional"/>
          <div xmlns="http://www.w3.org/1999/xhtml" lang = "en-AU">
            <p><b>Patient</b>: Eliana Iglesias</p>
            <p><b>Status</b>: In-progress</p>
            <p><b>Medication</b>: Sumatriptan 100 mg</p>            
            <p><b>Taken</b>: Taken</p>
            <p><b>Dosage</b>: 500mg 3/day for 5 days</p>
          </div>
        </text>
        <status value="completed"/>
        <medicationCodeableConcept>
          <coding>
            <system value="http://snomed.info/sct"/>
            <code value="45219011000036101"/>
            <display value="sumatriptan 100 mg tablet"/>
          </coding>
          <text value="sumatriptan 100 mg"/>
        </medicationCodeableConcept>
        <subject>
          <reference value="urn:uuid:792b4811-2ce7-4531-8893-af827175bcfe"/>
        </subject>
        <taken value="y"/>        
      </MedicationStatement>

    </resource>
  </entry>

  <!--    A MedicationStatement - Sumatripan (Intended)   -->
  <entry>
    <fullUrl value="urn:uuid:710f5906-2444-4b6a-b841-d3e23434f228"/>
    <resource>
      <MedicationStatement xmlns="http://hl7.org/fhir">
        <id value="710f5906-2444-4b6a-b841-d3e23434f228"/>
        <text>
          <status value="additional"/>
          <div xmlns="http://www.w3.org/1999/xhtml">
            <p><b>Patient</b>: Eliana Iglesias</p>
            <p><b>Status</b>: intended</p>
            <p><b>Medication</b>: Sumatriptan 100 mg</p>            
            <p><b>Taken</b>: Not yet taken</p>
            <p><b>Dosage</b>: 500mg 3/day for 5 days</p>
          </div>
        </text>
        <status value="intended"/>
        <medicationCodeableConcept>
          <coding>
            <system value="http://snomed.info/sct"/>
            <code value="45219011000036101"/>
            <display value="sumatriptan 100 mg tablet"/>
          </coding>
          <text value="sumatriptan 100 mg"/>
        </medicationCodeableConcept>
        <subject>
          <reference value="urn:uuid:792b4811-2ce7-4531-8893-af827175bcfe"/>
        </subject>
        <taken value="n"/>
        <dosage>
          <text value="1 tablet a day"/>
        </dosage>
      </MedicationStatement>
    </resource>
  </entry>

  <!--Medication Statement - amoxicillin 500mg 3/day for 5 days-->
  <entry>
    <fullUrl value="urn:uuid:9db8a050-0c25-4192-834d-bca1da8ff250"/>
    <resource>
      <MedicationStatement xmlns="http://hl7.org/fhir">
        <id value="9db8a050-0c25-4192-834d-bca1da8ff250"/>
        <text>
          <status value="additional"/>
          <div xmlns="http://www.w3.org/1999/xhtml">
            <p><b>Patient</b>: Eliana Iglesias</p>
            <p><b>Status</b>: intended</p>
            <p><b>Medication</b>: amoxicillin 500 mg capsule</p>            
            <p><b>Taken</b>: Not yet taken</p>
            <p><b>Dosage</b>: 500mg 3/day for 5 days</p>
          </div>
        </text>
        <status value="intended"/>
        <medicationCodeableConcept>
          <coding>
            <system value="http://snomed.info/sct"/>
            <code value="23551011000036108"/>
            <display value="amoxicillin 500 mg capsule"/>
          </coding>
          <text value="amoxicillin 500 mg capsule"/>
        </medicationCodeableConcept>
        <subject>
          <reference value="urn:uuid:792b4811-2ce7-4531-8893-af827175bcfe"/>
        </subject>
        <taken value="n"/>
        <dosage>
          <text value="500mg capsule 3 a day for 5 days"/>
          <timing>
            <repeat>
              <frequency value="3"/>
              <period value="5"/>
              <periodUnit value="d"/>
            </repeat>
          </timing>
          <doseQuantity>
            <value value="500"/>
            <unit value="mg"/>
            <system value="http://unitsofmeasure.org"/>
            <code value="mg"/>
          </doseQuantity>
        </dosage>
      </MedicationStatement>
    </resource>
  </entry>

  <!--Medication Statement -  augmentin forte 1 tablet-->
  <entry>
    <fullUrl value="urn:uuid:fc257fb0-8325-4f85-b29f-4c100346f527"/>
    <resource>
      <MedicationStatement xmlns="http://hl7.org/fhir">
        <id value="fc257fb0-8325-4f85-b29f-4c100346f527"/>
        <text>
          <status value="additional"/>
          <div xmlns="http://www.w3.org/1999/xhtml">
            <p><b>Patient</b>: Eliana Iglesias</p>
            <p><b>Status</b>: intended</p>
            <p><b>Medication</b>: Augmentin Duo Forte 875/125 film-coated tablet</p>           
            <p><b>Taken</b>: Not yet taken</p>
            <p><b>Dosage</b>: 1 tablet twice a day for five days</p>
          </div>
        </text>
        
        <status value="intended"/>
        <medicationCodeableConcept>
          <coding>
            <system value="http://snomed.info/sct"/>
            <code value="6052011000036107"/>
            <display value="Augmentin Duo Forte 875/125 film-coated tablet"/>
          </coding>
          <text value="Augmentin Duo Forte 875/125 film-coated tablet"/>
        </medicationCodeableConcept>
        <subject>
          <reference value="urn:uuid:792b4811-2ce7-4531-8893-af827175bcfe"/>
        </subject>
        <taken value="n"/>
        <dosage>
          <text value="1 tablet twice a day for five days"/>
          <timing>
            <repeat>
              <count value="1"/>
              <frequency value="2"/>
              <period value="5"/>
              <periodUnit value="d"/>
            </repeat>
          </timing>
        </dosage>
      </MedicationStatement>
    </resource>
  </entry>

  <!--AllergyIntolerance-->
  <entry>
    <fullUrl value="urn:uuid:a5e03840-1be4-43e0-acd2-c9e288adc4f9"/>
    <resource>
      <AllergyIntolerance xmlns="http://hl7.org/fhir">
        <id value="a5e03840-1be4-43e0-acd2-c9e288adc4f9"/>       
        <text>
          <status value="additional"/>
          <div xmlns="http://www.w3.org/1999/xhtml">
            <h2>AllergyIntolerance</h2>
            <p><b>Subject</b>: Eliana Iglesias</p>
            <p><b>Clinical Status</b>: active</p>
            <p><b>Verification Status</b>: confirmed</p>            
          </div>
        </text>
        <clinicalStatus value="active"/>
        <verificationStatus value="confirmed"/>
        <code>
          <coding>
            <system value="http://snomed.info/sct"/>
            <code value="409137002"/>
            <display value="No known drug allergy"/>
          </coding>
          <text value="No known medication allergies"/>
        </code>
        <patient>
          <reference value="urn:uuid:792b4811-2ce7-4531-8893-af827175bcfe"/>
        </patient>
      </AllergyIntolerance>
    </resource>
  </entry>

  
  <!--Condition - Headache-->
  <entry>
    <fullUrl value="urn:uuid:f834bdcb-c535-49d8-8689-e00f6848af0d"/>
    <resource>
      <Condition xmlns="http://hl7.org/fhir">
        <id value="f834bdcb-c535-49d8-8689-e00f6848af0d"/>
        <text>
          <status value="additional"/>
          <div xmlns="http://www.w3.org/1999/xhtml" lang="en-AU">
            <h2>Condition</h2>
            <p><b>Subject</b>: Eliana Iglesias</p>
            <p><b>Code</b>: Headache</p>
            <p><b>Clinical Status</b>: active</p>
            <p><b>Verification Status</b>: confirmed</p>            
            <p><b>onsetDateTime</b>: 02/04/2019</p>
            <p><b>assertedDate</b>: 04/04/2019 9:30 AM</p>            
          </div>
        </text>  
        <clinicalStatus value="active"/>
        <verificationStatus value="confirmed"/>
        <code>
          <coding>
            <system value="http://snomed.info/sct"/>
            <code value="25064002"/>
            <display value="Headache"/>
          </coding>
        </code>
        <subject>
          <reference value="urn:uuid:792b4811-2ce7-4531-8893-af827175bcfe"/>
        </subject>
        <onsetDateTime value="2019-04-02"/>
        <assertedDate value="2019-04-04T09:30:00+10:00"/>
      </Condition>
    </resource>
  </entry>

  <!--Condition - Fever-->
  <entry>
    <fullUrl value="urn:uuid:24e42657-2230-44df-8bac-d19346a7f20b"/>
    <resource>
      <Condition xmlns="http://hl7.org/fhir">
        <id value="24e42657-2230-44df-8bac-d19346a7f20b"/>
        <text>
          <status value="additional"/>
          <div xmlns="http://www.w3.org/1999/xhtml" lang="en-AU">
            <h2>Condition</h2>
            <p><b>Subject</b>: Eliana Iglesias</p>
            <p><b>Code</b>: Headache</p>
            <p><b>Clinical Status</b>: active</p>
            <p><b>Verification Status</b>: confirmed</p>            
            <p><b>onsetDateTime</b>: 02/04/2019</p>
            <p><b>assertedDate</b>: 04/04/2019 9:30 AM</p>            
          </div>
        </text> 
        <clinicalStatus value="active"/>
        <verificationStatus value="confirmed"/>
        <code>
          <coding>
            <system value="http://snomed.info/sct"/>
            <code value="386661006"/>
            <display value="Fever"/>
          </coding>
        </code>
        <subject>
          <reference value="urn:uuid:792b4811-2ce7-4531-8893-af827175bcfe"/>
        </subject>
        <onsetDateTime value="2019-04-02"/>
        <assertedDate value="2019-04-04T09:30:00+10:00"/>
      </Condition>
    </resource>
  </entry>

  <!--Condition - Sore Throat-->
  <entry>
    <fullUrl value="urn:uuid:9ceb1602-547f-4e3c-883d-a500c5e9d9255"/>
    <resource>
      <Condition xmlns="http://hl7.org/fhir">
        <id value="9ceb1602-547f-4e3c-883d-a500c5e9d925"/>
        <text>
          <status value="additional"/>
          <div xmlns="http://www.w3.org/1999/xhtml" lang="en-AU">
            <h2>Condition</h2>
            <p><b>Subject</b>: Eliana Iglesias</p>
            <p><b>Code</b>: Headache</p>
            <p><b>Clinical Status</b>: active</p>
            <p><b>Verification Status</b>: confirmed</p>            
            <p><b>onsetDateTime</b>: 02/04/2019</p>
            <p><b>assertedDate</b>: 04/04/2019 9:30 AM</p>            
          </div>
        </text>
        <clinicalStatus value="active"/>
        <verificationStatus value="confirmed"/>
        <code>
          <coding>
            <system value="http://snomed.info/sct"/>
            <code value="267102003"/>
            <display value="Sore throat symptom"/>
          </coding>
        </code>
        <subject>
          <reference value="urn:uuid:792b4811-2ce7-4531-8893-af827175bcfe"/>
        </subject>
        <onsetDateTime value="2019-04-02"/>
        <assertedDate value="2019-04-04T09:30:00+10:00"/>
      </Condition>
    </resource>
  </entry>
</Bundle>
