<?xml version="1.0" encoding="UTF-8"?>

<!-- Representation of the CDA example 'SML03_Example.xml' as Composition with contained resources and logical participant references -->

<Composition xmlns="http://hl7.org/fhir">
    <id value="ab4537a4-20c9-4f8a-9867-5c435b7eaa28"/>
    <meta>
        <versionId value="20190812v01"/>
        <profile value="http://ns.electronichealth.net.au/ci/fhir/3.0/StructureDefinition/composition-sml-prac-1"/>
    </meta>
    <language value="en-AU"/>
    <text>
        <status value="additional"/>
        <div xmlns="http://www.w3.org/1999/xhtml">
            <h2>Shared Medicines List</h2>
            <ul>
                <li>Date: 12/08/2018</li>
                <li>Status: final</li>
            </ul>
            <h3>Patient details</h3>
            <ul>
                <li>Mrs Bonny Goodwin</li>
                <li>Female</li>
                <li>Married</li>
                <li>IHI: 8003608000228445</li>
                <li>Medicare number: 3951032981</li>
            </ul>
            <h3>Author details</h3>
            <ul>
                <li>Pharmacist</li>
                <li>HPI-I: 8003619900041630</li>
                <li>Test Hospital (HPI-O: 8003623233366573)</li>
            </ul>
            <h3>General Practitioner</h3>
            <ul>
                <li>Dr. G. Practitioner</li>
            </ul>
            <h3>Allergies and Intolerances</h3>
			<p>No known allergies</p>
            <h3>Current Medicines</h3>
            <table border="1">
                <caption>Current Medicines</caption>
                <thead>
                    <tr>
                        <th>Medicine</th>
                        <th>Medicine brand name</th>
                        <th>Directions</th>
                        <th>Purpose</th>
                        <th>Status</th>
                        <th>Status reason</th>
                    </tr>
                </thead>
                <tbody>
                    <tr>
                        <td/>
                        <td>Tritace</td>
                        <td>Take one tablet in the morning daily.</td>
                        <td>To reduce high blood pressure; treat heart failure after a heart attack; prevent progresion of kidney failure; reduce the risk of heart attack, stroke and stenting</td>
                        <td>Unchanged</td>
                        <td/>
                    </tr>
                    <tr>
                        <td>docusate sodium 50 mg + sennoside B 8 mg tablet</td>
                        <td>Co-Senna</td>
                        <td>Take two tablets twice a day.</td>
                        <td>Laxative for constipation, works by softening the stools and also assists by stimulating the gut to achieve bowel movements.</td>
                        <td>New</td>
                        <td>Laxative for constipation.</td>
                    </tr>
                    <tr>
                        <td>Oxycodone</td>
                        <td>Endone</td>
                        <td>Take one to two tablets every four hours when required.</td>
                        <td>For relief of moderate to severe pain.</td>
                        <td>Amended</td>
                        <td>Dose increased</td>
                    </tr>
                </tbody>
            </table>
        </div>
    </text>

    <contained>
        <Encounter>
            <id value="encounter-01"/>
            <status value="finished"/>
            <type>
                <coding>
                    <system value="http://snomed.info/sct"/>
                    <code value="182836005"/>
                    <display value="Review of medication"/>
                </coding>
                <text value="Medicines review"/>
            </type>
            <subject>
                <!-- logical reference to Patient -->
                <identifier>
                    <type>
                        <coding>
                            <system value="http://hl7.org/fhir/v2/0203"/>
                            <code value="NI"/>
                            <display value="National unique individual identifier"/>
                        </coding>
                    </type>
                    <system value="http://ns.electronichealth.net.au/id/hi/ihi/1.0"/>
                    <value value="8003608000228445"/>
                </identifier>
            </subject>
            <period>
                <start value="2019-08-12T09:00:00+10:00"/>
                <end value="2019-08-12T10:30:00+10:00"/>
            </period>
        </Encounter>
    </contained>

    <contained>
        <AllergyIntolerance xmlns="http://hl7.org/fhir">
            <id value="allergyintolerance-01"/>
            <clinicalStatus value="active"/>
            <verificationStatus value="unconfirmed"/>
            <code>
                <coding>
                    <system value="http://snomed.info/sct"/>
                    <code value="716186003"/>
                    <display value="No known allergy"/>
                </coding>
                <text value="No known allergies"/>
            </code>
            <patient>
                <!-- logical reference to Patient -->
                <identifier>
                    <type>
                        <coding>
                            <system value="http://hl7.org/fhir/v2/0203"/>
                            <code value="NI"/>
                            <display value="National unique individual identifier"/>
                        </coding>
                    </type>
                    <system value="http://ns.electronichealth.net.au/id/hi/ihi/1.0"/>
                    <value value="8003608000228445"/>
                </identifier>
            </patient>
        </AllergyIntolerance>
    </contained>

    <contained>
        <List>
            <id value="list-01"/>
            <language value="en-AU"/>
            <extension url="http://hl7.org.au/fhir/StructureDefinition/author-role">
                <valueReference>
                    <!-- logical reference to PractitionerRole -->
                    <identifier>
                        <type>
                            <coding>
                                <system value="http://hl7.org/fhir/v2/0203"/>
                                <code value="NPI"/>
                                <display value="National provider identifier"/>
                            </coding>
                            <text value="HPI-I"/>
                        </type>
                        <system value="http://ns.electronichealth.net.au/id/hi/hpii/1.0"/>
                        <value value="8003619900041630"/>
                    </identifier>
                </valueReference>
            </extension>
            <status value="current"/>
            <mode value="snapshot"/>
            <code>
                <coding>
                    <system value="https://healthterminologies.gov.au/fhir/CodeSystem/nctis-data-components-1"/>
                    <code value="101.32009"/>
                    <display value="Current Medicines"/>
                </coding>
            </code>
            <subject>
                <!-- logical reference to Patient -->
                <identifier>
                    <type>
                        <coding>
                            <system value="http://hl7.org/fhir/v2/0203"/>
                            <code value="NI"/>
                            <display value="National unique individual identifier"/>
                        </coding>
                    </type>
                    <system value="http://ns.electronichealth.net.au/id/hi/ihi/1.0"/>
                    <value value="8003608000228445"/>
                </identifier>
            </subject>
            <encounter>
                <!-- reference to contained Encounter resource -->
                <reference value="#encounter-01"/>
            </encounter>
            <date value="2019-08-12"/>
            <source>
                <!-- logical reference to Practitioner -->
                <identifier>
                    <type>
                        <coding>
                            <system value="http://hl7.org/fhir/v2/0203"/>
                            <code value="NPI"/>
                            <display value="National provider identifier"/>
                        </coding>
                        <text value="HPI-I"/>
                    </type>
                    <system value="http://ns.electronichealth.net.au/id/hi/hpii/1.0"/>
                    <value value="8003619900041630"/>
                </identifier>
            </source>
            
            <entry>
                <flag>
                    <coding>
                        <system value="http://hl7.org.au/fhir/CodeSystem/medicine-item-change"/>
                        <code value="nochange"/>
                        <display value="Unchanged"/>
                    </coding>
                </flag>
                <item>
                    <!-- reference to contained MedicationStatement resource #1 -->
                    <reference value="#medicationstatement-01"/>
                </item>
            </entry>
            
            <entry>
                <extension url="http://hl7.org.au/fhir/StructureDefinition/change-description">
                    <valueString value="Laxative for constipation."/>
                </extension>
                <flag>
                    <coding>
                        <system value="http://hl7.org.au/fhir/CodeSystem/medicine-item-change"/>
                        <code value="new"/>
                        <display value="New"/>
                    </coding>
                </flag>
                <item>
                    <!-- reference to contained MedicationStatement resource #2 -->
                    <reference value="#medicationstatement-02"/>
                </item>
            </entry>
            
            <entry>
                <extension url="http://hl7.org.au/fhir/StructureDefinition/change-description">
                    <valueString value="Dose increased"/>
                </extension>
                <flag>
                    <coding>
                        <system value="http://hl7.org.au/fhir/CodeSystem/medicine-item-change"/>
                        <code value="amended"/>
                        <display value="Amended"/>
                    </coding>
                </flag>
                <item>
                    <!-- reference to contained MedicationStatement resource #3 -->
                    <reference value="#medicationstatement-03"/>
                </item>
            </entry>
            
        </List>
    </contained>
    
    <contained>
        <MedicationStatement>
            <id value="medicationstatement-01"/>
            <status value="active"/>
            <medicationReference>
                <!-- reference to contained Medication resource -->
                <reference value="#medication-01"/>
            </medicationReference>
            <subject>
                <!-- logical reference to Patient -->
                <identifier>
                    <type>
                        <coding>
                            <system value="http://hl7.org/fhir/v2/0203"/>
                            <code value="NI"/>
                            <display value="National unique individual identifier"/>
                        </coding>
                    </type>
                    <system value="http://ns.electronichealth.net.au/id/hi/ihi/1.0"/>
                    <value value="8003608000228445"/>
                </identifier>
            </subject>
            <taken value="y"/>
            <reasonCode>
                <text value="To reduce high blood pressure; treat
                    heart failure after a heart attack; prevent
                    progresion of kidney failure; reduce the risk of
                    heart attack, stroke and stenting"/>
            </reasonCode>
            <dosage>
                <text value="Take one tablet in the morning daily."/>
            </dosage>
        </MedicationStatement>
    </contained>
    
    <contained>
        <Medication>
            <id value="medication-01"/>
            <extension url="http://hl7.org.au/fhir/StructureDefinition/medication-brand-name">
                <valueString value="Tritace"/>
            </extension>
            <code>
                <text value="Tritace"/>
            </code>
        </Medication>
    </contained>
    
    <contained>
        <MedicationStatement>
            <id value="medicationstatement-02"/>
            <status value="active"/>
            <medicationReference>
                <!-- reference to contained Medication resource -->
                <reference value="#medication-02"/>
            </medicationReference>
            <subject>
                <!-- logical reference to Patient -->
                <identifier>
                    <type>
                        <coding>
                            <system value="http://hl7.org/fhir/v2/0203"/>
                            <code value="NI"/>
                            <display value="National unique individual identifier"/>
                        </coding>
                    </type>
                    <system value="http://ns.electronichealth.net.au/id/hi/ihi/1.0"/>
                    <value value="8003608000228445"/>
                </identifier>
            </subject>
            <taken value="y"/>
            <reasonCode>
                <coding>
                    <system value="http://snomed.info/sct"/>
                    <code value="14760008"/>
                    <display value="Constipation"/>
                </coding>
                <text value="Laxative for constipation, works by
                    softening the stools and also assists by
                    stimulating the gut to achieve bowel
                    movements."/>
            </reasonCode>
            <dosage>
                <text value="Take two tablets twice a day."/>
            </dosage>
        </MedicationStatement>
    </contained>
    
    <contained>
        <Medication>
            <id value="medication-02"/>
            <extension url="http://hl7.org.au/fhir/StructureDefinition/medication-brand-name">
                <valueString value="Co-Senna"/>
            </extension>
            <extension url="http://hl7.org.au/fhir/StructureDefinition/medication-generic-name">
                <valueString value="docusate sodium 50 mg + sennoside B 8 mg tablet"/>
            </extension>
            <code>
                <coding>
                    <system value="http://snomed.info/sct"/>
                    <code value="33690011000036100"/>
                    <display value="docusate sodium 50 mg + sennoside B 8 mg tablet"/>
                </coding>
                <text value="docusate sodium 50 mg + sennoside B
                    8 mg tablet"/>
            </code>
        </Medication>
    </contained>
    
    <contained>
        <MedicationStatement>
            <id value="medicationstatement-03"/>
            <status value="active"/>
            <medicationReference>
                <!-- reference to contained Medication resource -->
                <reference value="#medication-03"/>
            </medicationReference>
            <subject>
                <!-- logical reference to Patient -->
                <identifier>
                    <type>
                        <coding>
                            <system value="http://hl7.org/fhir/v2/0203"/>
                            <code value="NI"/>
                            <display value="National unique individual identifier"/>
                        </coding>
                    </type>
                    <system value="http://ns.electronichealth.net.au/id/hi/ihi/1.0"/>
                    <value value="8003608000228445"/>
                </identifier>
            </subject>
            <taken value="y"/>
            <reasonCode>
                <coding>
                    <system value="http://snomed.info/sct"/>
                    <code value="428346000"/>
                    <display value="Pain relief by medication"/>
                </coding>
                <text value="For relief of moderate to severe
                    pain"/>
            </reasonCode>
            <dosage>
                <text value="Take one to two tablets every four hours when required."/>
            </dosage>
        </MedicationStatement>
    </contained>
    
    <contained>
        <Medication>
            <id value="medication-03"/>
            <extension url="http://hl7.org.au/fhir/StructureDefinition/medication-brand-name">
                <valueString value="Endone"/>
            </extension>
            <extension url="http://hl7.org.au/fhir/StructureDefinition/medication-generic-name">
                <valueString value="Oxycodone"/>
            </extension>
            <code>
                <coding>
                    <system value="http://pbs.gov.au/code/item"/>
                    <code value="5195K"/>
                    <display value="oxycodone hydrochloride 5 mg tablet, 20"/>
                </coding>
                <coding>
                    <system value="http://pbs.gov.au/code/item"/>
                    <code value="2622B"/>
                    <display value="OXYCODONE"/>
                </coding>
                <text value="Endone Oxycodone"></text>
            </code>
        </Medication>
    </contained>

    <extension url="http://hl7.org.au/fhir/StructureDefinition/composition-author-role">
        <valueReference>
            <!-- logical reference to PractitionerRole -->
            <identifier>
                <type>
                    <coding>
                        <system value="http://hl7.org/fhir/v2/0203"/>
                        <code value="NPI"/>
                        <display value="National provider identifier"/>
                    </coding>
                    <text value="HPI-I"/>
                </type>
                <system value="http://ns.electronichealth.net.au/id/hi/hpii/1.0"/>
                <value value="8003619900041630"/>
            </identifier>
        </valueReference>
    </extension>
    <status value="final"/>
    <type>
        <coding>
            <system value="http://loinc.org"/>
            <code value="56445-0"/>
            <display value="Medication summary"/>
        </coding>
    </type>
    <subject>
        <!-- logical reference to Patient -->
        <identifier>
            <type>
                <coding>
                    <system value="http://hl7.org/fhir/v2/0203"/>
                    <code value="NI"/>
                    <display value="National unique individual identifier"/>
                </coding>
            </type>
            <system value="http://ns.electronichealth.net.au/id/hi/ihi/1.0"/>
            <value value="8003608000228445"/>
        </identifier>
    </subject>
    <encounter>
        <!-- reference to contained Encounter resource -->
        <reference value="#encounter-01"/>
    </encounter>
    <date value="2019-08-12"/>
    <author>
        <!-- logical reference to Practitioner -->
        <identifier>
            <type>
                <coding>
                    <system value="http://hl7.org/fhir/v2/0203"/>
                    <code value="NPI"/>
                    <display value="National provider identifier"/>
                </coding>
                <text value="HPI-I"/>
            </type>
            <system value="http://ns.electronichealth.net.au/id/hi/hpii/1.0"/>
            <value value="8003619900041630"/>
        </identifier>
    </author>
    <title value="Shared Medicines List"/>
    <attester>
        <mode value="legal"/>
        <time value="2019-09-02T10:00:15+10:00"/>
        <party>
            <!-- logical reference to Practitioner -->
            <identifier>
                <type>
                    <coding>
                        <system value="http://hl7.org/fhir/v2/0203"/>
                        <code value="NPI"/>
                        <display value="National provider identifier"/>
                    </coding>
                    <text value="HPI-I"/>
                </type>
                <system value="http://ns.electronichealth.net.au/id/hi/hpii/1.0"/>
                <value value="8003619900041630"/>
            </identifier>
        </party>
    </attester>
    <custodian>
        <!-- logical reference to Organization -->
        <identifier>
            <type>
                <coding>
                    <system value="http://hl7.org.au/fhir/v2/0203"/>
                    <code value="NOI"/>
                </coding>
                <text value="HPI-O"/>
            </type>
            <system value="http://ns.electronichealth.net.au/id/hi/hpio/1.0"/>
            <value value="8003623233366573"/>
        </identifier>
    </custodian>

    <section>
        <title value="Allergies and Intolerances"/>
        <code>
            <coding>
                <system value="http://loinc.org"/>
                <code value="48765-2"/>
                <display value="Allergies &amp;or adverse reactions"/>
            </coding>
        </code>
        <text>
            <status value="generated"/>
            <div xmlns="http://www.w3.org/1999/xhtml" lang="en-AU">
                <p>No known allergies</p>
            </div>
        </text>
        <entry>
            <!-- reference to contained AllergyIntolerance resource -->
            <reference value="#allergyintolerance-01"/>
        </entry>
    </section>

    <section>
        <title value="Current Medicines"/>
        <code>
            <coding>
                <system value="https://healthterminologies.gov.au/fhir/CodeSystem/nctis-data-components-1"/>
                <code value="101.32009"/>
                <display value="Current Medicines"/>
            </coding>
        </code>
        <text>
            <status value="extensions"/>
            <div xmlns="http://www.w3.org/1999/xhtml" lang="en-AU">
                <table border="1">
                    <caption>Current Medicines</caption>
                    <thead>
                        <tr>
                            <th>Medicine</th>
                            <th>Medicine brand name</th>
                            <th>Directions</th>
                            <th>Purpose</th>
                            <th>Status</th>
                            <th>Status reason</th>
                        </tr>
                    </thead>
                    <tbody>
                        <tr>
                            <td/>
                            <td>Tritace</td>
                            <td>Take one tablet in the morning daily.</td>
                            <td>To reduce high blood pressure; treat heart failure after a heart attack; prevent progresion of kidney failure; reduce the risk of heart attack, stroke and stenting</td>
                            <td>Unchanged</td>
                            <td/>
                        </tr>
                        <tr>
                            <td>docusate sodium 50 mg + sennoside B 8 mg tablet</td>
                            <td>Co-Senna</td>
                            <td>Take two tablets twice a day.</td>
                            <td>Laxative for constipation, works by softening the stools and also assists by stimulating the gut to achieve bowel movements.</td>
                            <td>New</td>
                            <td>Laxative for constipation.</td>
                        </tr>
                        <tr>
                            <td>Oxycodone</td>
                            <td>Endone</td>
                            <td>Take one to two tablets every four hours when required.</td>
                            <td>For relief of moderate to severe pain.</td>
                            <td>Amended</td>
                            <td>Dose increased</td>
                        </tr>
                    </tbody>
                </table>
            </div>
        </text>
        <entry>
            <!-- reference to contained List resource -->
            <reference value="#list-01"/>
        </entry>
    </section>

</Composition>
