<?xml version="1.0" encoding="UTF-8"?>
<Composition xmlns="http://hl7.org/fhir">
  <id value="1840e786-bbd7-4abe-af3e-aa6e7f74c3f2"/>
  <meta>
    <profile
      value="http://ns.electronichealth.net.au/ci/fhir/3.0/StructureDefinition/composition-acp-1"/>
  </meta>
  <language value="en-AU"/>
  <text>
    <status value="additional"/>
    <div xmlns="http://www.w3.org/1999/xhtml" lang="en-AU">     
      <p><b>id</b>: 1840e786-bbd7-4abe-af3e-aa6e7f74c3f2</p>      
      <p><b>language</b>: en-AU</p>      
      <p><b>status</b>: final</p>
      <p><b>type</b>: Advance Care Planning <span style="background: LightGoldenRodYellow">(Details
        : {https://healthterminologies.gov.au/fhir/CodeSystem/nctis-data-components-1 code
        '100.16975' = '100.16975', given as 'Advance Care Planning'})</span></p>
      <p><b>subject</b>: name = Adam A. Everyman; IHI = 8003608833357361; gender = male</p>
      <p><b>date</b>: 21/06/2017 9:00:15 AM</p>
      <p><b>author</b>: name = Adam A. Everyman; IHI = 8003608833357361; gender = male </p>
      <p><b>title</b>: Advance Care Planning Document</p>
      <p><b>custodian</b>: PAI-O = 8003640001000036</p>
    </div>
  </text>
  <contained>
    <Patient>
      <id value="7817adef-177a-464c-b56e-27ffc0af4606"/>
      <meta>
        <profile
          value="http://ns.electronichealth.net.au/ci/fhir/3.0/StructureDefinition/patient-ident-1"/>
      </meta>
      <identifier>
        <type>
          <coding>
            <system value="http://hl7.org/fhir/v2/0203"/>
            <code value="NI"/>
            <display value="National unique individual identifier"/>
          </coding>
        </type>
        <system value="http://ns.electronichealth.net.au/id/hi/ihi/1.0"/>
        <value value="8003608833357361"/>
      </identifier>
      <name>
        <use value="official"/>
        <text value="Adam A. Everyman"/>
        <family value="Everyman"/>
        <given value="Adam"/>
        <given value="A."/>
      </name>
      <name>
        <use value="usual"/>
        <given value="Damo"/>
      </name>
      <gender value="male"/>
    </Patient>
  </contained>
  <contained>
    <DocumentReference>
      <id value="e8b72e23-65c3-4cef-b91a-aba0bd307f5c"/>
      <meta>
        <profile
          value="http://ns.electronichealth.net.au/ci/fhir/3.0/StructureDefinition/documentreference-acp-1"/>
      </meta>
      <masterIdentifier>
        <system value="urn:ietf:rfc:3986" />
        <value value="urn:uuid:738b6ba4-709a-4091-ad05-4790f39e17bc" />
      </masterIdentifier>
      <identifier>
        <system value="urn:ietf:rfc:3986" />
        <value value="urn:uuid:738b6ba4-709a-4091-ad05-4790f39e17bc" />
      </identifier>
      <status value="current"/>
      <type>
        <coding>
          <system value="https://healthterminologies.gov.au/fhir/CodeSystem/nctis-data-components-1"/>
          <code value="100.16998"/>
          <display value="Advance Care Planning Document"/>
        </coding>
      </type>
      <subject>
        <reference value="#7817adef-177a-464c-b56e-27ffc0af4606"/>
      </subject>
      <created value="2019-11-03T12:35:00+10:00"/>
      <indexed value="2019-11-04T12:35:00+10:00"/>
      <author>
        <reference value="#7817adef-177a-464c-b56e-27ffc0af4606"/>
      </author>
      <content>
        <attachment>
          <contentType value="application/pdf" />
          <url value="attachment.pdf"/>
          <hash value="IiZNlyLY4gyewfICeWhFe2NcDDw="/>
        </attachment>
      </content>
    </DocumentReference>
  </contained>
  <contained>
    <Organization>
      <id value="3192b0cd-3a67-4cb5-b7d8-198057ba8b67"/>
      <meta>
        <profile
          value="http://ns.electronichealth.net.au/ci/fhir/3.0/StructureDefinition/organization-ident-1"
        />
      </meta>
      <identifier>
        <type>
          <text value="PAI-O"/>
        </type>
        <system value="http://ns.electronichealth.net.au/id/pcehr/paio/1.0"/>
        <value value="8003640001000036"/>
      </identifier>
    </Organization>
  </contained>
  <status value="final"/>
  <type>
    <coding>
      <system value="https://healthterminologies.gov.au/fhir/CodeSystem/nctis-data-components-1"/>
      <code value="100.16975"/>
      <display value="Advance Care Planning"/>
    </coding>
  </type>
  <subject>
    <reference value="#7817adef-177a-464c-b56e-27ffc0af4606"/>
  </subject>
  <date value="2017-06-21T09:00:15+10:00"/>
  <author>
    <reference value="#7817adef-177a-464c-b56e-27ffc0af4606"/>
  </author>
  <title value="Advance Care Planning Document"/>
  <custodian>
    <reference value="#3192b0cd-3a67-4cb5-b7d8-198057ba8b67"/>
  </custodian>
  <section>
    <title value="Advance Care Planning Document"/>
    <code>
      <coding>
        <system value="https://healthterminologies.gov.au/fhir/CodeSystem/nctis-data-components-1"/>
        <code value="101.16973"/>
        <display value="Advance Care Information Section"/>
      </coding>
    </code>
    <text>
      <status value="additional"/>
      <div xmlns="http://www.w3.org/1999/xhtml">
        <p><a href="attachment.pdf">Advance Care Plan for Adam</a></p>
        <p>Created on: 03 November 2009</p>
        <p>Created by: Adam Everyman</p>
      </div>
    </text>
    <entry>
      <reference value="#e8b72e23-65c3-4cef-b91a-aba0bd307f5c"/>
    </entry>
  </section>
</Composition>
