<?xml version="1.0" encoding="UTF-8"?>
<Composition xmlns="http://hl7.org/fhir">
  <id value="dc32838b-faf3-4102-9c78-27186ac32e20"/>
  <meta>
    <profile
      value="http://ns.electronichealth.net.au/ci/fhir/3.0/StructureDefinition/composition-phs-1"/>
  </meta>
  <language value="en-AU"/>
  <text>
    <status value="additional"/>
    <div xmlns="http://www.w3.org/1999/xhtml" lang="en-AU">
      <p><b>id</b>: dc32838b-faf3-4102-9c78-27186ac32e20</p>
      <p><b>language</b>: en-AU</p>
      <p><b>status</b>: final</p>
      <p><b>type</b>: Personal Health Summary <span style="background: LightGoldenRodYellow"
          >(Details : {https://healthterminologies.gov.au/fhir/CodeSystem/nctis-data-components-1
          code '100.16685' = '100.16685', given as 'Personal Health Summary'})</span></p>
      <p><b>subject</b>: IHI = 8003608833357361; gender = male</p>
      <p><b>date</b>: 01/12/2018 9:00:15 AM</p>
      <p><b>author</b>: related person name: Bob Thavaprasagnam; IHI = 8003608833357361;
        relationship = Guardian</p>
      <p><b>title</b>: Personal Health Summary</p>
      <p><b>custodian</b>: ABN: 20073665175</p>
    </div>
  </text>
  <contained>
    <Patient>
      <id value="7d10b711-cded-4339-a2fd-ef69e7ba7847"/>
      <meta>
        <profile
          value="http://ns.electronichealth.net.au/ci/fhir/3.0/StructureDefinition/patient-ihi-1"/>
        <profile
          value="http://ns.electronichealth.net.au/ci/fhir/3.0/StructureDefinition/patient-ident-1"
        />
      </meta>
      <identifier>
        <type>
          <coding>
            <system value="http://hl7.org/fhir/v2/0203"/>
            <code value="NI"/>
            <display value="National unique individual identifier"/>
          </coding>
        </type>
        <system value="http://ns.electronichealth.net.au/id/hi/ihi/1.0"/>
        <value value="8003608833357361"/>
      </identifier>
      <gender value="male"/>
    </Patient>
  </contained>
  <contained>
    <RelatedPerson>
      <id value="6870bc44-97a1-4523-8d98-fc1ee640ea70"/>
      <meta>
        <profile
          value="http://ns.electronichealth.net.au/ci/fhir/3.0/StructureDefinition/relatedperson-ihi-1"
        />
      </meta>
      <identifier>
        <type>
          <coding>
            <system value="http://hl7.org/fhir/v2/0203"/>
            <code value="NI"/>
            <display value="National unique individual identifier"/>
          </coding>
        </type>
        <system value="http://ns.electronichealth.net.au/id/hi/ihi/1.0"/>
        <value value="8003608833357361"/>
      </identifier>
      <patient>
        <reference value="#7d10b711-cded-4339-a2fd-ef69e7ba7847"/>
      </patient>
      <relationship>
        <coding>
          <system value="http://snomed.info/sct"/>
          <code value="394619001"/>
          <display value="Guardian"/>
        </coding>
      </relationship>
      <name>
        <text value="Bob Thavaprasagnam"/>
      </name>
    </RelatedPerson>
  </contained>
  <contained>
    <Organization>
      <id value="ba0bcc13-248e-4d64-a4b8-a8aa2bd9cb7c"/>
      <meta>
        <profile
          value="http://ns.electronichealth.net.au/ci/fhir/3.0/StructureDefinition/organization-ident-1"
        />
      </meta>
      <identifier>
        <type>
          <coding>
            <system value="http://hl7.org/fhir/v2/0203"/>
            <code value="XX"/>
            <display value="Organization Identifier"/>
          </coding>
          <text value="ABN"/>
        </type>
        <system value="http://hl7.org.au/id/abn"/>
        <value value="20073665175"/>
      </identifier>
    </Organization>
  </contained>
  <contained>
    <AllergyIntolerance xmlns="http://hl7.org/fhir">
      <id value="90dfca31-664f-44e7-909a-905058a255fc"/>
      <meta>
        <profile
          value="http://ns.electronichealth.net.au/ci/fhir/3.0/StructureDefinition/allergyintolerance-summary-1"
        />
      </meta>
      <clinicalStatus value="active"/>
      <verificationStatus value="unconfirmed"/>
      <code>
        <coding>
          <system value="http://snomed.info/sct"/>
          <code value="716186003"/>
          <display value="No known allergy"/>
        </coding>
      </code>
      <patient>
        <reference value="#7d10b711-cded-4339-a2fd-ef69e7ba7847"/>
      </patient>
    </AllergyIntolerance>
  </contained>
  <contained>
    <Observation xmlns="http://hl7.org/fhir">
      <id value="4e6c2639-370b-43cd-85db-91bf85da2b22"/>
      <meta>
        <profile
          value="http://ns.electronichealth.net.au/ci/fhir/3.0/StructureDefinition/observation-norelevantfinding-1"
        />
      </meta>
      <status value="final"/>
      <code>
        <coding>
          <system value="http://hl7.org/fhir/v3/ActCode"/>
          <code value="ASSERTION"/>
          <display value="Assertion"/>
        </coding>
      </code>
      <subject>
        <reference value="#7d10b711-cded-4339-a2fd-ef69e7ba7847"/>
      </subject>
      <effectiveDateTime value="2018-10-23"/>
      <valueCodeableConcept>
        <coding>
          <system value="http://snomed.info/sct"/>
          <code value="1234391000168107"/>
          <display value="No known current medications"/>
        </coding>
      </valueCodeableConcept>
    </Observation>
  </contained>
  <status value="final"/>
  <type>
    <coding>
      <system value="https://healthterminologies.gov.au/fhir/CodeSystem/nctis-data-components-1"/>
      <code value="100.16685"/>
      <display value="Personal Health Summary"/>
    </coding>
  </type>
  <subject>
    <reference value="#7d10b711-cded-4339-a2fd-ef69e7ba7847"/>
  </subject>
  <date value="2018-12-01T09:00:15+10:00"/>
  <author>
    <reference value="#6870bc44-97a1-4523-8d98-fc1ee640ea70"/>
  </author>
  <title value="Personal Health Summary"/>
  <custodian>
    <reference value="#ba0bcc13-248e-4d64-a4b8-a8aa2bd9cb7c"/>
  </custodian>
  <section>
    <title value="Current Medications"/>
    <code>
      <coding>
        <system value="https://healthterminologies.gov.au/fhir/CodeSystem/nctis-data-components-1"/>
        <code value="101.32009"/>
        <display value="Current Medicine"/>
      </coding>
    </code>
    <text>
      <status value="additional"/>
      <div xmlns="http://www.w3.org/1999/xhtml">
        <p>None</p>
      </div>
    </text>
    <entry>
      <reference value="#4e6c2639-370b-43cd-85db-91bf85da2b22"/>
    </entry>
  </section>
  <section>
    <title value="Allergies and Adverse Reactions"/>
    <code>
      <coding>
        <system value="http://loinc.org"/>
        <code value="48765-2"/>
        <display value="Allergies and adverse reactions Document"/>
      </coding>
    </code>
    <text>
      <status value="additional"/>
      <div xmlns="http://www.w3.org/1999/xhtml">
        <p>None</p>
      </div>
    </text>
    <entry>
      <reference value="#90dfca31-664f-44e7-909a-905058a255fc"/>
    </entry>
  </section>
</Composition>
