<?xml version="1.0" encoding="UTF-8"?>
<Composition xmlns="http://hl7.org/fhir">
    <id value="cb2708f5-b42d-47bc-97cf-5fc66e875f51"/>
    <meta>
        <profile
            value="http://ns.electronichealth.net.au/ci/fhir/3.0/StructureDefinition/composition-phn-1"
        />
    </meta>
    <language value="en-AU"/>
    <contained>
        <Patient>
            <id value="76d7a6ff-23b8-4e4c-9c98-7c20818e0242"/>
            <meta>
                <profile
                    value="http://ns.electronichealth.net.au/ci/fhir/3.0/StructureDefinition/patient-ihi-1"
                />
            </meta>
            <identifier>
                <type>
                    <coding>
                        <system value="http://hl7.org/fhir/v2/0203"/>
                        <code value="NI"/>
                        <display value="National unique individual identifier"/>
                    </coding>
                </type>
                <system value="http://ns.electronichealth.net.au/id/hi/ihi/1.0"/>
                <value value="8003608833357361"/>
            </identifier>
            <telecom>
                <system value="phone"/>
                <value value="(03) 44556677"/>
            </telecom>
            <gender value="female"/>
            <address>
                <line value="55 Sarah Street"/>
                <city value="Strahan"/>
                <state value="TAS"/>
                <postalCode value="7468"/>
                <country value="AU"/>
            </address>

        </Patient>
    </contained>
    <contained>
        <RelatedPerson>
            <id value="47c94af0-2ba0-4c9a-be38-1efed4c6286d"/>
            <meta>
                <profile
                    value="http://ns.electronichealth.net.au/ci/fhir/3.0/StructureDefinition/relatedperson-ihi-1"
                />
            </meta>
            <identifier>
                <type>
                    <coding>
                        <system value="http://hl7.org/fhir/v2/0203"/>
                        <code value="NI"/>
                        <display value="National unique individual identifier"/>
                    </coding>
                </type>
                <system value="http://ns.electronichealth.net.au/id/hi/ihi/1.0"/>
                <value value="8003608833357361"/>
            </identifier>
            <patient>
                <reference value="#76d7a6ff-23b8-4e4c-9c98-7c20818e0242"/>
            </patient>
            <relationship>
                <coding>
                    <system value="http://hl7.org/fhir/v3/RoleCode"/>
                    <code value="SIGOTHR"/>
                    <display value="significant other"/>
                </coding>
            </relationship>
        </RelatedPerson>
    </contained>
    <contained>
        <Organization>
            <id value="f2684e75-3664-4708-a7c9-9d45c045bf0c"/>
            <meta>
                <profile
                    value="http://ns.electronichealth.net.au/ci/fhir/3.0/StructureDefinition/organization-ident-1"
                />
            </meta>
            <identifier>
                <type>
                    <text value="PAI-O"/>
                </type>
                <system value="http://ns.electronichealth.net.au/id/pcehr/paio/1.0"/>
                <value value="8003640001000036"/>
            </identifier>
        </Organization>
    </contained>
    <status value="final"/>
    <type>
        <coding>
            <system
                value="https://healthterminologies.gov.au/fhir/CodeSystem/nctis-data-components-1"/>
            <code value="100.16681"/>
            <display value="Personal Health Notes"/>
        </coding>
    </type>
    <subject>
        <reference value="#76d7a6ff-23b8-4e4c-9c98-7c20818e0242"/>
    </subject>
    <date value="2017-06-21T09:00:15+10:00"/>
    <author>
        <reference value="#47c94af0-2ba0-4c9a-be38-1efed4c6286d"/>
    </author>
    <title value="Personal Health Notes"/>
    <custodian>
        <reference value="#f2684e75-3664-4708-a7c9-9d45c045bf0c"/>
    </custodian>
    <section>
        <title value="My Health Notes"/>
        <code>
            <coding>
                <system
                    value="https://healthterminologies.gov.au/fhir/CodeSystem/nctis-data-components-1"/>
                <code value="102.15513"/>
                <display value="Notes"/>
            </coding>
        </code>
        <text>
            <status value="additional"/>
            <div xmlns="http://www.w3.org/1999/xhtml">
                <p>
                    <b>Exercise note</b>
                </p>
                <p>Have been for a 20 min run every morning since last Friday.</p>
            </div>
        </text>
    </section>
</Composition>
