<?xml version="1.0" encoding="UTF-8"?>
<Composition xmlns="http://hl7.org/fhir">
  <id value="28bbf331-07d0-44a4-9d0b-927e83f483ec"/>
  <meta>
    <profile
      value="http://ns.electronichealth.net.au/ci/fhir/3.0/StructureDefinition/composition-acp-1"/>
  </meta>
  <language value="en-AU"/>
  <text>
    <status value="additional"/>
    <div xmlns="http://www.w3.org/1999/xhtml" lang="en-AU">
      
      <h1>Advance Care Planning</h1>
      
      <h2>Consumer details</h2>
      <table>
        <tbody>
          <tr>
            <th>Name</th>
            <td>Adam A. Everyman</td>
          </tr>
          <tr>
            <th>Identifier</th>
            <td>IHI: 8003608666701594</td>
          </tr>
          <tr>
            <th>Gender</th>
            <td>Male</td>
          </tr>
        </tbody>
      </table>
      
      <h2>Author details</h2>
      <table>
        <tbody>
          <tr>
            <th>Name</th>
            <td>Dr. Peter Chalmers</td>
          </tr>
          <tr>
            <th>Identifier</th>
            <td>HPI-I: 8003610000000000</td>
          </tr>
          <tr>
            <th>Authoring PractitionerRole</th>
            <td>Dr Peter Chalmers, General Practitioner, HPI-I: 8003610000000000</td>
          </tr>
        </tbody>
      </table>
      
      <h2>Document details</h2>
      <table>
        <tbody>
          <tr>
            <th>Status</th>
            <td>final</td>
          </tr>
          <tr>
            <th>Created</th>
            <td>21 June 2017, 09:00:15</td>
          </tr>
          <tr>
            <th>Custodian</th>
            <td>PAI-O: 8003640001000036</td>
          </tr>
        </tbody>
      </table>
      
    </div>
  </text>
  <contained>
    <Patient>
      <id value="137f2770-8a52-48c8-98c0-790a29645a1a"/>
      <meta>
        <profile
          value="http://ns.electronichealth.net.au/ci/fhir/3.0/StructureDefinition/patient-ident-1"/>
      </meta>
      <identifier>
        <type>
          <coding>
            <system value="http://hl7.org/fhir/v2/0203"/>
            <code value="NI"/>
            <display value="National unique individual identifier"/>
          </coding>
        </type>
        <system value="http://ns.electronichealth.net.au/id/hi/ihi/1.0"/>
        <value value="8003608666701594"/>
      </identifier>
      <name>
        <use value="official"/>
        <text value="Adam A. Everyman"/>
        <family value="Everyman"/>
        <given value="Adam"/>
        <given value="A."/>
      </name>
      <name>
        <use value="usual"/>
        <given value="Damo"/>
      </name>
      <gender value="male"/>
    </Patient>
  </contained>
  <contained>
    <Practitioner>
      <id value="e75140ff-3476-4efb-b508-20aa6c6fbc77"/>
      <meta>
        <profile
          value="http://ns.electronichealth.net.au/ci/fhir/3.0/StructureDefinition/practitioner-dh-base-1"
        />
          <profile
            value="http://ns.electronichealth.net.au/ci/fhir/3.0/StructureDefinition/practitioner-ident-1"
          />
      </meta>
      <identifier>
        <type>
          <coding>
            <system value="http://hl7.org/fhir/v2/0203"/>
            <code value="NPI"/>
            <display value="National provider identifier"/>
          </coding>
          <text value="HPI-I"/>
        </type>
        <system value="http://ns.electronichealth.net.au/id/hi/hpii/1.0"/>
        <value value="8003610000000000"/>
      </identifier>
      <name>
        <use value="official"/>
        <family value="Chalmers"/>
        <given value="Peter"/>
        <prefix value="Dr."/>
      </name>
      <telecom>
        <system value="email"/>
        <value value="pchalmers@example.albiongp.com.au"/>
        <use value="work"/>
      </telecom>
    </Practitioner>
  </contained>
  <contained>
    <PractitionerRole>
      <id value="cb9d944f-1b75-4603-b63a-167460882287"/>
      <meta>
        <profile
          value="http://ns.electronichealth.net.au/ci/fhir/3.0/StructureDefinition/practitionerrole-withpractitionerident-1"
        />
      </meta>
      <identifier>
        <type>
          <coding>
            <system value="http://hl7.org/fhir/v2/0203"/>
            <code value="NPI"/>
            <display value="National provider identifier"/>
          </coding>
          <text value="HPI-I"/>
        </type>
        <system value="http://ns.electronichealth.net.au/id/hi/hpii/1.0"/>
        <value value="8003610000000000"/>
      </identifier>
      <practitioner>
        <reference value="#e75140ff-3476-4efb-b508-20aa6c6fbc77"/>
      </practitioner>
      <organization>
        <reference value="#0b27b9e9-50fb-4975-9e60-d053e4618288"/>
      </organization>
      <code>
        <coding>
          <system value="http://www.abs.gov.au/ausstats/abs@.nsf/mf/1220.0"/>
          <code value="253111"/>
          <display value="General Practitioner"/>
        </coding>
        <text value="GP"/>
      </code>
    </PractitionerRole>
  </contained>
  <contained>
    <Organization>
      <id value="0b27b9e9-50fb-4975-9e60-d053e4618288"/>
      <meta>
        <profile
          value="http://ns.electronichealth.net.au/ci/fhir/3.0/StructureDefinition/organization-ident-1"/>
        <profile
          value="http://ns.electronichealth.net.au/ci/fhir/3.0/StructureDefinition/organization-dh-base-1"
        />
      </meta>
      <identifier>
        <type>
          <text value="PAI-O"/>
        </type>
        <system value="http://ns.electronichealth.net.au/id/pcehr/paio/1.0"/>
        <value value="8003640001000036"/>
      </identifier>
      <name value="Albion GP Clinic"/>
    </Organization>
  </contained>
  <contained>
    <DocumentReference>
      <id value="fc7889ef-477b-45d2-9b76-968ecff5940b"/>
      <meta>
        <profile
          value="http://ns.electronichealth.net.au/ci/fhir/3.0/StructureDefinition/documentreference-acp-1"/>
      </meta>
      <extension
        url="http://hl7.org.au/fhir/StructureDefinition/author-role﻿">
        <valueReference>
          <reference value="#cb9d944f-1b75-4603-b63a-167460882287"/>
        </valueReference>
      </extension>
      <masterIdentifier>
        <system value="urn:ietf:rfc:3986" />
        <value value="urn:uuid:738b6ba4-709a-4091-ad05-4790f39e17bc" />
      </masterIdentifier>
      <identifier>
        <system value="urn:ietf:rfc:3986" />
        <value value="urn:uuid:738b6ba4-709a-4091-ad05-4790f39e17bc" />
      </identifier>
      <status value="current"/>
      <type>
        <coding>
          <system value="https://healthterminologies.gov.au/fhir/CodeSystem/nctis-data-components-1"/>
          <code value="100.16998"/>
          <display value="Advance Care Planning Document"/>
        </coding>
      </type>
      <subject>
        <reference value="#137f2770-8a52-48c8-98c0-790a29645a1a"/>
      </subject>
      <created value="2019-11-03T12:35:00+10:00"/>
      <indexed value="2019-11-04T12:35:00+10:00"/>
      <author>
        <reference value="#e75140ff-3476-4efb-b508-20aa6c6fbc77"/>
      </author>
      <content>
        <attachment>
          <contentType value="application/pdf" />
          <url value="attachment.pdf"/>
          <hash value="IiZNlyLY4gyewfICeWhFe2NcDDw="/>
        </attachment>
      </content>
    </DocumentReference>
  </contained>
  <extension
    url="http://hl7.org.au/fhir/StructureDefinition/composition-author-role">
    <valueReference>
      <reference value="#cb9d944f-1b75-4603-b63a-167460882287"/>
    </valueReference>
  </extension>
  <status value="final"/>
  <type>
    <coding>
      <system value="https://healthterminologies.gov.au/fhir/CodeSystem/nctis-data-components-1"/>
      <code value="100.16975"/>
      <display value="Advance Care Planning"/>
    </coding>
  </type>
  <subject>
    <reference value="#137f2770-8a52-48c8-98c0-790a29645a1a"/>
  </subject>
  <date value="2017-06-21T09:00:15+10:00"/>
  <author>
    <reference value="#e75140ff-3476-4efb-b508-20aa6c6fbc77"/>
  </author>
  <title value="Advance Care Planning Document"/>
  <attester>
    <mode value="legal"/>
    <time value="2017-06-21T09:00:15+10:00"/>
    <party>
      <reference value="#e75140ff-3476-4efb-b508-20aa6c6fbc77"/>
    </party>
  </attester>
  <custodian>
    <reference value="#0b27b9e9-50fb-4975-9e60-d053e4618288"/>
  </custodian>
  <section>
    <title value="Advance Care Planning Document"/>
    <code>
      <coding>
        <system value="https://healthterminologies.gov.au/fhir/CodeSystem/nctis-data-components-1"/>
        <code value="101.16973"/>
        <display value="Advance Care Information Section"/>
      </coding>
    </code>
    <text>
      <status value="additional"/>
      <div xmlns="http://www.w3.org/1999/xhtml">
        <p><a href="attachment.pdf">Advance Care Plan for Adam</a></p>
        <p>Created on: 03 November 2009</p>
        <p>Created by: Dr. Peter Chalmers</p>
      </div>
    </text>
    <entry>
      <reference value="#fc7889ef-477b-45d2-9b76-968ecff5940b"/>
    </entry>
  </section>
</Composition>
