<?xml version="1.0" encoding="UTF-8"?>
<Composition xmlns="http://hl7.org/fhir">
  <id value="bd06e981-ba86-4020-ba59-cd89f80e8712"/>
  <meta>
    <profile
      value="http://ns.electronichealth.net.au/ci/fhir/3.0/StructureDefinition/composition-shs-1"/>
  </meta>
  <language value="en-AU"/>
  <text>
    <status value="additional"/>
    <div xmlns="http://www.w3.org/1999/xhtml" lang="en-AU">
      
      <h1>Shared Health Summary</h1>
      
      <h2>Consumer details</h2>
      <table>
        <tbody>
          <tr>
            <th>Name</th>
            <td>Adam A. Everyman</td>
          </tr>
          <tr>
            <th>Identifier</th>
            <td>IHI: 8003608833357361</td>
          </tr>
          <tr>
            <th>Gender</th>
            <td>Male</td>
          </tr>
        </tbody>
      </table>
      
      <h2>Author details</h2>
      <table>
        <tbody>
          <tr>
            <th>Name</th>
            <td>Dr. Peter Chalmers</td>
          </tr>
          <tr>
            <th>Identifier</th>
            <td>HPI-I: 8003619900015717</td>
          </tr>          
        </tbody>
      </table>
      
      <h2>Document details</h2>
      <table>
        <tbody>
          <tr>
            <th>Document ID</th>
            <td>bd06e981-ba86-4020-ba59-cd89f80e8712</td>
          </tr>
          <tr>
            <th>Language</th>
            <td>en-AU</td>
          </tr>
          <tr>
            <th>Status</th>
            <td>Final</td>
          </tr>
          <tr>
            <th>Created</th>
            <td>21 June 2017, 09:00:15</td>
          </tr>
          <tr>
            <th>Attester</th>
            <td>HPI-I: 8003619900015717</td>
          </tr>
          <tr>
            <th>Custodian</th>
            <td>PAI-O: 8003640001000036</td>
          </tr>
        </tbody>
      </table>
    </div>
  </text>
  <contained>
    <Patient>
      <id value="841a56de-92d7-47fd-bb27-bad8efb371e4"/>
      <meta>
        <profile
          value="http://ns.electronichealth.net.au/ci/fhir/3.0/StructureDefinition/patient-ident-1"/>
        <profile
          value="http://ns.electronichealth.net.au/ci/fhir/3.0/StructureDefinition/patient-ihi-1"
        />
      </meta>
      <identifier>
        <type>
          <coding>
            <system value="http://hl7.org/fhir/v2/0203"/>
            <code value="NI"/>
            <display value="National unique individual identifier"/>
          </coding>
        </type>
        <system value="http://ns.electronichealth.net.au/id/hi/ihi/1.0"/>
        <value value="8003608833357361"/>
      </identifier>
      <name>
        <use value="official"/>
        <text value="Adam A. Everyman"/>
        <family value="Everyman"/>
        <given value="Adam"/>
        <given value="A."/>
      </name>
      <name>
        <use value="usual"/>
        <given value="Damo"/>
      </name>
      <gender value="male"/>
    </Patient>
  </contained>
  <contained>
    <Practitioner>
      <id value="428f6506-625f-4f16-b0e2-b31ab6d293bf"/>
      <meta>
        <profile
          value="http://ns.electronichealth.net.au/ci/fhir/3.0/StructureDefinition/practitioner-dh-base-1"
        />
          <profile
            value="http://ns.electronichealth.net.au/ci/fhir/3.0/StructureDefinition/practitioner-ident-1"
          />
      </meta>
      <identifier>
        <type>
          <coding>
            <system value="http://hl7.org/fhir/v2/0203"/>
            <code value="NPI"/>
            <display value="National provider identifier"/>
          </coding>
          <text value="HPI-I"/>
        </type>
        <system value="http://ns.electronichealth.net.au/id/hi/hpii/1.0"/>
        <value value="8003619900015717"/>
      </identifier>
      <name>
        <use value="official"/>
        <family value="Chalmers"/>
        <given value="Peter"/>
        <prefix value="Dr."/>
      </name>
      <telecom>
        <system value="email"/>
        <value value="pchalmers@example.albiongp.com.au"/>
        <use value="work"/>
      </telecom>
    </Practitioner>
  </contained>
  <contained>
    <PractitionerRole>
      <id value="f61db690-0ba4-4219-acd4-021ecc6a36fd"/>
      <meta>
        <profile
          value="http://ns.electronichealth.net.au/ci/fhir/3.0/StructureDefinition/practitionerrole-withpractitionerident-1"
        />
      </meta>
      <identifier>
        <type>
          <coding>
            <system value="http://hl7.org/fhir/v2/0203"/>
            <code value="NPI"/>
            <display value="National provider identifier"/>
          </coding>
          <text value="HPI-I"/>
        </type>
        <system value="http://ns.electronichealth.net.au/id/hi/hpii/1.0"/>
        <value value="8003619900015717"/>
      </identifier>
      <practitioner>
        <reference value="#428f6506-625f-4f16-b0e2-b31ab6d293bf"/>
      </practitioner>
      <organization>
        <reference value="#64e56b9c-e51d-4157-b379-34e71e3dbfa4"/>
      </organization>
      <code>
        <coding>
          <system value="http://www.abs.gov.au/ausstats/abs@.nsf/mf/1220.0"/>
          <code value="253111"/>
          <display value="General Practitioner"/>
        </coding>
        <text value="GP"/>
      </code>
    </PractitionerRole>
  </contained>
  <contained>
    <Organization>
      <id value="64e56b9c-e51d-4157-b379-34e71e3dbfa4"/>
      <meta>
        <profile
          value="http://ns.electronichealth.net.au/ci/fhir/3.0/StructureDefinition/organization-ident-1"/>
        <profile
          value="http://ns.electronichealth.net.au/ci/fhir/3.0/StructureDefinition/organization-dh-base-1"
        />
      </meta>
      <identifier>
        <type>
          <text value="PAI-O"/>
        </type>
        <system value="http://ns.electronichealth.net.au/id/pcehr/paio/1.0"/>
        <value value="8003640001000036"/>
      </identifier>
      <name value="Albion GP Clinic"/>
    </Organization>
  </contained>
  <contained>
    <AllergyIntolerance xmlns="http://hl7.org/fhir">
      <id value="c5c80cde-70d0-4644-9d55-ae5574fcd8ea"/>
      <meta>
        <profile
          value="http://ns.electronichealth.net.au/ci/fhir/3.0/StructureDefinition/allergyintollerance-summary-1"/>
      </meta>
      <clinicalStatus value="active"/>
      <verificationStatus value="unconfirmed"/>
      <code>
        <text value="Penicillin"/>
      </code>
      <patient>
        <reference value="#841a56de-92d7-47fd-bb27-bad8efb371e4"/>
      </patient>
      <reaction>
        <manifestation>
          <text value="Rash; Nausea and vomiting"/>
        </manifestation>
      </reaction>
    </AllergyIntolerance>
  </contained>
  <contained>
    <AllergyIntolerance xmlns="http://hl7.org/fhir">
      <id value="d977ab88-ecbe-49c1-99b7-9b1afbb65563"/>
      <meta>
        <profile
          value="http://ns.electronichealth.net.au/ci/fhir/3.0/StructureDefinition/allergyintollerance-summary-1"/>
      </meta>
      <clinicalStatus value="active"/>
      <verificationStatus value="unconfirmed"/>
      <code>
        <text value="Nuts"/>
      </code>
      <patient>
        <reference value="#841a56de-92d7-47fd-bb27-bad8efb371e4"/>
      </patient>
      <reaction>
        <manifestation>
          <text value="Breathing problems"/>
        </manifestation>
      </reaction>
    </AllergyIntolerance>
  </contained>
  <contained>
    <Observation xmlns="http://hl7.org/fhir">
      <id value="dd82cc78-60b0-41cb-83d4-32521d3b9fa2"/>
      <meta>
        <profile
          value="http://ns.electronichealth.net.au/ci/fhir/3.0/StructureDefinition/observation-norelevantfinding-1"/>
      </meta>
      <status value="final"/>
      <code>
        <coding>
          <system value="http://hl7.org/fhir/v3/ActCode"/>
          <code value="ASSERTION"/>
          <display value="Assertion"/>
        </coding>
      </code>
      <subject>
        <reference value="#841a56de-92d7-47fd-bb27-bad8efb371e4"/>
      </subject>
      <effectiveDateTime value="2017-06-21"/>
       <valueCodeableConcept>
        <coding>
          <system value="http://snomed.info/sct"/>
          <code value="1234391000168107"/>
          <display value="No known current medications"/>
        </coding>
      </valueCodeableConcept>
    </Observation>
  </contained>
  <contained>
    <Immunization xmlns="http://hl7.org/fhir">
      <id value="7e7dbbfe-5afb-4938-86eb-27060b5daba7"/>
      <meta>
        <profile
          value="http://ns.electronichealth.net.au/ci/fhir/3.0/StructureDefinition/immunization-summary-administration-1"/>
      </meta>
      <status value="completed"/>
      <notGiven value="false"/>
      <vaccineCode>
        <coding>
          <system value="http://snomed.info/sct"/>
          <code value="33491000168108"/>
          <display value="Engerix-B Adult"/>
        </coding>
      </vaccineCode>
      <patient>
        <reference value="#841a56de-92d7-47fd-bb27-bad8efb371e4"/>
      </patient>
      <date value="2017-10-09"/>
      <primarySource value="true"/>
    </Immunization>
  </contained>
  <contained>
    <Immunization xmlns="http://hl7.org/fhir">
      <id value="d4b8094b-435e-4b43-b38b-f38328bddda3"/>
      <meta>
        <profile
          value="http://ns.electronichealth.net.au/ci/fhir/3.0/StructureDefinition/immunization-summary-administration-1"/>
      </meta>
      <status value="completed"/>
      <notGiven value="false"/>
      <vaccineCode>
        <coding>
          <system value="http://snomed.info/sct"/>
          <code value="73695011000036100"/>
          <display value="Meningitec"/>
        </coding>
      </vaccineCode>
      <patient>
        <reference value="#841a56de-92d7-47fd-bb27-bad8efb371e4"/>
      </patient>
      <date value="2017-09-10"/>
      <primarySource value="true"/>
    </Immunization>
  </contained>
  <contained>
    <Immunization xmlns="http://hl7.org/fhir">
      <id value="8f9e3a4e-64d0-48b8-ac1b-85f9ecfeae06"/>
      <meta>
        <profile
          value="http://ns.electronichealth.net.au/ci/fhir/3.0/StructureDefinition/immunization-summary-administration-1"/>
      </meta>
      <status value="completed"/>
      <notGiven value="false"/>
      <vaccineCode>
        <coding>
          <system value="http://snomed.info/sct"/>
          <code value="709541000168107"/>
          <display value="Fluvax 2015"/>
        </coding>
      </vaccineCode>
      <patient>
        <reference value="#841a56de-92d7-47fd-bb27-bad8efb371e4"/>
      </patient>
      <date value="2015-10-03"/>
      <primarySource value="true"/>
    </Immunization>
  </contained>
  <extension
    url="http://hl7.org.au/fhir/StructureDefinition/composition-author-role">
    <valueReference>
      <reference value="#f61db690-0ba4-4219-acd4-021ecc6a36fd"/>
    </valueReference>
  </extension>
  <status value="final"/>
  <type>
    <coding>
      <system value="http://loinc.org"/>
      <code value="60591-5"/>
      <display value="Patient Summary"/>
    </coding>
  </type>
  <subject>
    <reference value="#841a56de-92d7-47fd-bb27-bad8efb371e4"/>
  </subject>
  <date value="2017-06-21T09:00:15+10:00"/>
  <author>
    <reference value="#428f6506-625f-4f16-b0e2-b31ab6d293bf"/>
  </author>
  <title value="Shared Health Summary"/>
  <attester>
    <mode value="legal"/>
    <time value="2017-06-21T09:00:15+10:00"/>
    <party>
      <reference value="#428f6506-625f-4f16-b0e2-b31ab6d293bf"/>
    </party>
  </attester>
  <custodian>
    <reference value="#64e56b9c-e51d-4157-b379-34e71e3dbfa4"/>
  </custodian>
  <section>
    <title value="Current Medications"/>
    <code>
      <coding>
        <system value="https://healthterminologies.gov.au/fhir/CodeSystem/nctis-data-components-1"/>
        <code value="101.32009"/>
        <display value="Current Medicine"/>
      </coding>
    </code>
    <text>
      <status value="additional"/>
      <div xmlns="http://www.w3.org/1999/xhtml">
        <p>None</p>
      </div>
    </text>
    <entry>
      <reference value="#dd82cc78-60b0-41cb-83d4-32521d3b9fa2"/>
    </entry>
  </section>
  <section>
    <title value="Allergies and Adverse Reactions"/>
    <code>
      <coding>
        <system value="http://loinc.org"/>
        <code value="48765-2"/>
        <display value="Allergies andor adverse reactions"/>
      </coding>
    </code>
    <text>
      <status value="additional"/>
      <div xmlns="http://www.w3.org/1999/xhtml">
        <table>
          <thead>
            <tr>
              <th>Agent</th>
              <th>Reaction Description</th>
            </tr>
          </thead>
          <tbody>
            <tr>
              <td>Penicillin</td>
              <td>Rash; Nausea and vomiting</td>
            </tr>
            <tr>
              <td>Nuts</td>
              <td>Breathing problems</td>
            </tr>
          </tbody>
        </table>
      </div>
    </text>
    <entry>
      <reference value="#c5c80cde-70d0-4644-9d55-ae5574fcd8ea"/>
    </entry>
    <entry>
      <reference value="#d977ab88-ecbe-49c1-99b7-9b1afbb65563"/>
    </entry>
  </section>
  <section>
    <title value="Medical History"/>
    <code>
      <coding>
        <system
          value="https://healthterminologies.gov.au/fhir/CodeSystem/nctis-data-components-1"/>
        <code value="101.16117"/>
      </coding>
    </code>
    <text>
      <status value="additional"/>
      <div xmlns="http://www.w3.org/1999/xhtml">Unknown</div>
    </text>
    <emptyReason>
      <coding>
        <system value="http://hl7.org/fhir/list-empty-reason"/>
        <code value="unavailable"/>
        <display value="Unavailable"/>
      </coding>
      <text value="Unknown"/>
    </emptyReason>
  </section>
  <section>
    <title value="Immunisations"/>
    <code>
      <coding>
        <system value="http://loinc.org"/>
        <code value="11369-6"/>
      </coding>
    </code>
    <text>
      <status value="additional"/>
      <div xmlns="http://www.w3.org/1999/xhtml">
        <table border="5">
          <thead>
            <tr>
              <th>Vaccine</th>
              <th>Date Administered</th>
            </tr>
          </thead>
          <tbody>
            <tr>
              <td>
                <b>Engerix-B Adult</b>
              </td>
              <td>09/10/2017</td>
              <td/>
            </tr> 
            <tr>
              <td>
                <b>Meningitec</b>
              </td>
              <td>10/09/2017</td>
              <td/>
            </tr>
            <tr>
              <td>Fluvax 2015</td>
              <td>03/10/2015</td>
              <td/>
            </tr>
          </tbody>
        </table></div>
    </text>
    <entry>
      <reference value="#7e7dbbfe-5afb-4938-86eb-27060b5daba7"/>
    </entry>
    <entry>
      <reference value="#d4b8094b-435e-4b43-b38b-f38328bddda3"/>
    </entry>
    <entry>
      <reference value="#8f9e3a4e-64d0-48b8-ac1b-85f9ecfeae06"/>
    </entry>
  </section>
</Composition>
