<?xml version="1.0" encoding="UTF-8"?>
<Composition xmlns="http://hl7.org/fhir">
    <id value="composition-phn-example1"/>
    <meta>
        <profile
            value="http://ns.electronichealth.net.au/ci/fhir/3.0/StructureDefinition/composition-phn-1"
        />
    </meta>
    <language value="en-AU"/>
    <contained>
        <Patient>
            <id value="Patient1"/>
            <meta>
                <profile
                    value="http://ns.electronichealth.net.au/ci/fhir/3.0/StructureDefinition/patient-ihi-1"
                />
            </meta>
            <identifier>
                <type>
                    <coding>
                        <system value="http://hl7.org/fhir/v2/0203"/>
                        <code value="NI"/>
                        <display value="National unique individual identifier"/>
                    </coding>
                </type>
                <system value="http://ns.electronichealth.net.au/id/hi/ihi/1.0"/>
                <value value="8003608666701594"/>
            </identifier>
            <gender value="male"/>
        </Patient>
    </contained>
    <contained>
        <Organization>
            <id value="Organization1"/>
            <meta>
                <profile
                    value="http://ns.electronichealth.net.au/ci/fhir/3.0/StructureDefinition/organization-ident-1"
                />
            </meta>
            <identifier>
                <type>
                    <text value="PAI-O"/>
                </type>
                <system value="http://ns.electronichealth.net.au/id/pcehr/paio/1.0"/>
                <value value="8003640001000036"/>
            </identifier>
        </Organization>
    </contained>
    <status value="final"/>
    <type>
        <coding>
            <system
                value="https://healthterminologies.gov.au/fhir/CodeSystem/nctis-data-components-1"/>
            <code value="100.16681"/>
            <display value="Personal Health Notes"/>
        </coding>
    </type>
    <subject>
        <reference value="#Patient1"/>
    </subject>
    <date value="2017-06-21T09:00:15+10:00"/>
    <author>
        <reference value="#Patient1"/>
    </author>
    <title value="Personal Health Notes"/>
    <custodian>
        <reference value="#Organization1"/>
    </custodian>
    <section>
        <title value="My Health Notes"/>
        <code>
            <coding>
                <system
                    value="https://healthterminologies.gov.au/fhir/CodeSystem/nctis-data-components-1"/>
                <code value="102.15513"/>
                <display value="Notes"/>
            </coding>
        </code>
        <text>
            <status value="additional"/>
            <div xmlns="http://www.w3.org/1999/xhtml">
                <p>
                    <b>My Diabetes</b>
                </p>
                <p>I saw my doctor today and he said my last test results were getting better, but
                    he was still not happy with my diet. I should go back to that nice dietician
                    Kate again.</p>
            </div>
        </text>
    </section>
</Composition>
