<?xml version="1.0" encoding="UTF-8"?>
<Composition xmlns="http://hl7.org/fhir">
  <id value="a0da969a-7956-439b-b390-8de071a2df7c"/>
  <meta>
    <profile value="http://ns.electronichealth.net.au/ci/fhir/3.0/StructureDefinition/composition-shs-1"/>
  </meta>
  <language value="en-AU"/>
  <text>
    <status value="additional"/>
    <div xmlns="http://www.w3.org/1999/xhtml" lang="en-AU">
      <p><b> id</b> : a0da969a-7956-439b-b390-8de071a2df7c</p>
      <p><b>Language</b>: en-AU</p>
      <p><b>Status</b> : final</p>
      <p><b>Type</b>: Shared Health Summary <span style="background: LightGoldenRodYellow"
        >(Details : {LOINC code '60591-5' = 'Patient summary Document', given as 'Patient Summary'})</span></p>
      <p><b>Date</b> : 21/06/2017 09:00:15+10:00</p>
      <p><b>Consumer</b>: HPI-I = 8003608833357361; name = Sammy GoodPatient</p>
      <p><b>Author</b>: HPI-I = 8003619900015717; name = Barry Helpman M.D.</p>
      <p><b>Attester</b>: HPI-I = 8003619900015717; name = Barry Helpman M.D.</p>
      <p><b>Title</b> : Shared Health Summary</p>
      <p><b>Custodian</b>: ABN = 51824754455; name = Devonport Family Medicine Clinic</p>
    </div>
  </text>
  <contained>
    <MedicationStatement xmlns="http://hl7.org/fhir">
      <id value="f7583f71-7736-4d10-89f7-fa1845e53120"/>
      <meta>
        <profile
          value="http://ns.electronichealth.net.au/ci/fhir/3.0/StructureDefinition/medicationstatement-summary-1"
        />
      </meta>
      <status value="active"/>
      <medicationCodeableConcept>
        <coding>
          <system value="http://snomed.info/sct"/>
          <code value="22087011000036100"/>
          <display value="candesartan cilexetil 32 mg tablet"/>
        </coding>
        <text value="Candesartan 32mg"/>
      </medicationCodeableConcept>
      <subject>
        <reference value="#e6e84607-a0da-4ead-9ed6-5e064fea9fc4"/>
      </subject>
      <taken value="y"/>
      <dosage>
        <text value="1 d"/>
        <timing>
          <repeat>
            <frequency value="1"/>
            <period value="1"/>
            <periodUnit value="d"/>
          </repeat>
        </timing>
        <doseQuantity>
          <value value="1"/>
          <unit value="﻿tablet"/>
          <system value="http://snomed.info/sct"/>
          <code value="63011000036109"/>
        </doseQuantity>
      </dosage>
    </MedicationStatement>
  </contained>
  <contained>
    <MedicationStatement xmlns="http://hl7.org/fhir">
      <id value="314619c2-2d97-4fb9-9c25-b0b9da92f804"/>
      <meta>
        <profile
          value="http://ns.electronichealth.net.au/ci/fhir/3.0/StructureDefinition/medicationstatement-summary-1"
        />
      </meta>
      <status value="active"/>
      <medicationCodeableConcept>
        <coding>
          <system value="http://snomed.info/sct"/>
          <code value="23358011000036102"/>
          <display value="metformin hydrochloride 500 mg tablet"/>
        </coding>
        <text value="Metformin 500mg"/>
      </medicationCodeableConcept>
      <subject>
        <reference value="#e6e84607-a0da-4ead-9ed6-5e064fea9fc4"/>
      </subject>
      <taken value="y"/>
      <dosage>
        <text value="1 bd"/>
        <timing>
          <repeat>
            <frequency value="2"/>
            <period value="1"/>
            <periodUnit value="d"/>
          </repeat>
        </timing>
        <doseQuantity>
          <value value="1"/>
          <unit value="﻿tablet"/>
          <system value="http://snomed.info/sct"/>
          <code value="63011000036109"/>
        </doseQuantity>
      </dosage>
    </MedicationStatement>
  </contained>
  <contained>
    <MedicationStatement xmlns="http://hl7.org/fhir">
      <id value="90d418aa-ed53-447b-95d2-099101ed4339"/>
      <meta>
        <profile
          value="http://ns.electronichealth.net.au/ci/fhir/3.0/StructureDefinition/medicationstatement-summary-1"
        />
      </meta>
      <status value="active"/>
      <medicationCodeableConcept>
        <coding>
          <system value="http://snomed.info/sct"/>
          <code value="22879011000036102"/>
          <display value="candesartan cilexetil 8 mg tablet"/>
        </coding>
        <text value="Candesartan 8mg"/>
      </medicationCodeableConcept>
      <subject>
        <reference value="#e6e84607-a0da-4ead-9ed6-5e064fea9fc4"/>
      </subject>
      <taken value="y"/>
      <dosage>
        <text value="0.5 d"/>
        <timing>
          <repeat>
            <frequency value="1"/>
            <period value="1"/>
            <periodUnit value="d"/>
          </repeat>
        </timing>
        <doseQuantity>
          <value value="0.5"/>
          <unit value="﻿tablet"/>
          <system value="http://snomed.info/sct"/>
          <code value="63011000036109"/>
        </doseQuantity>
      </dosage>
    </MedicationStatement>
  </contained>
  <contained>
    <Patient>
      <id value="e6e84607-a0da-4ead-9ed6-5e064fea9fc4"/>
      <meta>
        <profile
          value="http://ns.electronichealth.net.au/ci/fhir/3.0/StructureDefinition/patient-ident-1"/>
        <profile
          value="http://ns.electronichealth.net.au/ci/fhir/3.0/StructureDefinition/patient-ihi-1"/>
        <profile
          value="http://ns.electronichealth.net.au/ci/fhir/3.0/StructureDefinition/patient-mhr-1"/>
      </meta>
      <extension url="http://hl7.org.au/fhir/StructureDefinition/indigenous-status">
        <valueCoding>
          <system
            value="https://healthterminologies.gov.au/fhir/CodeSystem/australian-indigenous-status-1"/>
          <code value="9"/>
          <display value="Not stated/inadequately described"/>
        </valueCoding>
      </extension>
      <identifier>
        <type>
          <coding>
            <system value="http://hl7.org/fhir/v2/0203"/>
            <code value="NI"/>
            <display value="National unique individual identifier"/>
          </coding>
        </type>
        <system value="http://ns.electronichealth.net.au/id/hi/ihi/1.0"/>
        <value value="8003608833357361"/>
      </identifier>
      <name>
        <text value="Sammy GoodPatient"/>
        <family value="GoodPatient"/>
        <given value="Sammy"/>
      </name>
      <gender value="other"/>
      <birthDate value="1956-08-23"/>
      <generalPractitioner>
        <reference value="#20f15728-f3ac-4877-b55a-107f94dbd00c"/>
      </generalPractitioner>
      <managingOrganization>
        <reference value="#021fff67-c5ec-438f-9520-ce9bafee1306"/>
      </managingOrganization>
    </Patient>
  </contained>
  <contained>
    <Practitioner>
      <id value="40a94071-8373-4d53-a788-63b79c75a3c1"/>
      <meta>
        <profile
          value="http://ns.electronichealth.net.au/ci/fhir/3.0/StructureDefinition/practitioner-dh-base-1"/>
        <profile
          value="http://ns.electronichealth.net.au/ci/fhir/3.0/StructureDefinition/practitioner-ident-1"
        />
      </meta>
      <identifier>
        <type>
          <coding>
            <system value="http://hl7.org/fhir/v2/0203"/>
            <code value="NPI"/>
            <display value="National provider identifier"/>
          </coding>
          <text value="HPI-I"/>
        </type>
        <system value="http://ns.electronichealth.net.au/id/hi/hpii/1.0"/>
        <value value="8003619900015717"/>
      </identifier>
      <name>
        <use value="official"/>
        <family value="Helpman"/>
        <given value="Barry"/>
        <suffix value="M.D."/>
      </name>
      <telecom>
        <system value="email"/>
        <value value="bhelpman@example.devonportgp.com.au"/>
        <use value="work"/>
      </telecom>
      <qualification>
        <identifier>
          <type>
            <coding>
              <system value="http://hl7.org.au/fhir/v2/0203"/>
              <code value="AHPRA"/>
              <display value="Australian Health Practitioner Regulation Agency Registration Number"
              />
            </coding>
            <text value="AHPRA Registration Number"/>
          </type>
          <system value="http://hl7.org.au/id/ahpra-registration-number"/>
          <value value="MED0000932850"/>
        </identifier>
        <code>
          <coding>
            <system value="http://www.abs.gov.au/ausstats/abs@.nsf/mf/1220.0"/>
            <code value="253111"/>
            <display value="General Medical Practitioner"/>
          </coding>
          <text value="AHPRA qualification for General Practitioner"/>
        </code>
        <issuer>
          <display value="AHPRA"/>
        </issuer>
      </qualification>
    </Practitioner>
  </contained>
  <contained>
    <Practitioner>
      <id value="20f15728-f3ac-4877-b55a-107f94dbd00c"/>
      <meta>
        <profile
          value="http://ns.electronichealth.net.au/ci/fhir/3.0/StructureDefinition/practitioner-dh-base-1"
        />
      </meta>
      <name>
        <use value="official"/>
        <family value="Doctor"/>
        <given value="Good"/>
        <prefix value="Dr."/>
      </name>
    </Practitioner>
  </contained>
  <contained>
    <PractitionerRole>
      <id value="45cad6ac-e9a3-418a-8480-4e64132849f2"/>
      <meta>
        <profile
          value="http://ns.electronichealth.net.au/ci/fhir/3.0/StructureDefinition/practitionerrole-withpractitionerident-1"
        />
      </meta>
      <identifier>
        <type>
          <coding>
            <system value="http://hl7.org.au/fhir/v2/0203"/>
            <code value="UPIN"/>
          </coding>
          <text value="Medicare Provider Number"/>
        </type>
        <system value="http://ns.electronichealth.net.au/id/medicare-provider-number"/>
        <value value="5544887B"/>
      </identifier>
      <identifier>
        <type>
          <coding>
            <system value="http://hl7.org/fhir/v2/0203"/>
            <code value="NPI"/>
            <display value="National provider identifier"/>
          </coding>
          <text value="HPI-I"/>
        </type>
        <system value="http://ns.electronichealth.net.au/id/hi/hpii/1.0"/>
        <value value="8003619900015717"/>
      </identifier>
      <practitioner>
        <reference value="#40a94071-8373-4d53-a788-63b79c75a3c1"/>
      </practitioner>
      <organization>
        <reference value="#021fff67-c5ec-438f-9520-ce9bafee1306"/>
      </organization>
      <code>
        <coding>
          <system value="http://www.abs.gov.au/ausstats/abs@.nsf/mf/1220.0"/>
          <code value="253111"/>
          <display value="General Practitioner"/>
        </coding>
        <text value="GP"/>
      </code>
    </PractitionerRole>
  </contained>
  <contained>
    <Organization>
      <id value="021fff67-c5ec-438f-9520-ce9bafee1306"/>
      <meta>
        <profile
          value="http://ns.electronichealth.net.au/ci/fhir/3.0/StructureDefinition/organization-ident-1"
        />
      </meta>
      <identifier>
        <type>
          <text value="ABN"/>
        </type>
        <system value="http://hl7.org.au/id/abn"/>
        <value value="51824754455"/>
      </identifier>
      <name value="Devonport Family Medicine Clinic"/>
      <telecom>
        <system value="email"/>
        <value value="reception@example.dfmc.com.au"/>
        <use value="work"/>
      </telecom>
      <telecom>
        <system value="fax"/>
        <value value="(03) 8543 5557"/>
        <use value="work"/>
      </telecom>
      <telecom>
        <system value="phone"/>
        <value value="(03) 8543 5556"/>
        <use value="work"/>
      </telecom>
      <address>
        <type value="postal"/>
        <line value="LPO Box 235"/>
        <city value="Strahan"/>
        <state value="TAS"/>
        <postalCode value="7468"/>
        <country value="AU"/>
      </address>
    </Organization>
  </contained>
  <contained>
    <AllergyIntolerance xmlns="http://hl7.org/fhir">
      <id value="a5e03840-1be4-43e0-acd2-c9e288adc4f9"/>
      <meta>
        <profile
          value="http://ns.electronichealth.net.au/ci/fhir/3.0/StructureDefinition/allergyintollerance-summary-1"
        />
      </meta>
      <clinicalStatus value="active"/>
      <verificationStatus value="unconfirmed"/>
      <code>
        <coding>
          <system value="http://snomed.info/sct"/>
          <code value="409137002"/>
          <display value="No known drug allergy"/>
        </coding>
        <text value="No known medication allergies"/>
      </code>
      <patient>
        <reference value="#e6e84607-a0da-4ead-9ed6-5e064fea9fc4"/>
      </patient>
    </AllergyIntolerance>
  </contained>
  <contained>
    <Procedure xmlns="http://hl7.org/fhir">
      <id value="3bc4a0f3-1d3e-4bde-83a9-7a04dd5f4a77"/>
      <meta>
        <profile
          value="http://ns.electronichealth.net.au/ci/fhir/3.0/StructureDefinition/procedure-summary-1"
        />
      </meta>
      <status value="completed"/>
      <code>
        <coding>
          <system value="http://snomed.info/sct"/>
          <code value="443681002"/>
          <display value="Total replacement of left knee joint"/>
        </coding>
      </code>
      <subject>
        <reference value="#e6e84607-a0da-4ead-9ed6-5e064fea9fc4"/>
      </subject>
      <performedDateTime value="2015-02-27"/>
    </Procedure>
  </contained>
  <contained>
    <Condition xmlns="http://hl7.org/fhir">
      <id value="cfa41daf-b5a6-4a05-9166-a4b7c23f08a1"/>
      <meta>
        <profile
          value="http://ns.electronichealth.net.au/ci/fhir/3.0/StructureDefinition/condition-summary-1"
        />
      </meta>
      <clinicalStatus value="active" />
      <code>
        <coding>
          <system value="http://snomed.info/sct"/>
          <code value="49436004"/>
          <display value="Atrial fibrillation"/>
        </coding>
      </code>
      <subject>
        <reference value="#e6e84607-a0da-4ead-9ed6-5e064fea9fc4"/>
      </subject>
      <onsetDateTime value="2017"/>
    </Condition>
  </contained>
  <contained>
    <Condition xmlns="http://hl7.org/fhir">
      <id value="b021320c-bc5e-4ae8-b9fc-1ed2d876e889"/>
      <meta>
        <profile
          value="http://ns.electronichealth.net.au/ci/fhir/3.0/StructureDefinition/condition-summary-1"
        />
      </meta>
      <clinicalStatus value="resolved" />
      <code>
        <coding>
          <system value="http://snomed.info/sct"/>
          <code value="301001009"/>
          <display value="Right lower zone pneumonia"/>
        </coding>
      </code>
      <subject>
        <reference value="#e6e84607-a0da-4ead-9ed6-5e064fea9fc4"/>
      </subject>
      <onsetDateTime value="2017-03"/>
      <abatementDateTime value="2017-04-03"/>
    </Condition>
  </contained>
  <extension url="http://hl7.org.au/fhir/StructureDefinition/composition-author-role">
    <valueReference>
      <reference value="#45cad6ac-e9a3-418a-8480-4e64132849f2"/>
    </valueReference>
  </extension>
  <identifier>
    <system value="urn:ietf:rfc:3986"/>
    <value value="urn:uuid:c009fbfd-c0ab-45cc-9536-735a624c943c"/>
  </identifier>
  <status value="final"/>
  <type>
    <coding>
      <system value="http://loinc.org"/>
      <code value="60591-5"/>
      <display value="Patient Summary"/>
    </coding>
  </type>
  <subject>
    <reference value="#e6e84607-a0da-4ead-9ed6-5e064fea9fc4"/>
  </subject>
  <date value="2017-06-21T09:00:15+10:00"/>
  <author>
    <reference value="#40a94071-8373-4d53-a788-63b79c75a3c1"/>
  </author>
  <title value="Shared Health Summary"/>
  <attester>
    <mode value="legal"/>
    <time value="2017-06-21T09:00:15+10:00"/>
    <party>
      <reference value="#40a94071-8373-4d53-a788-63b79c75a3c1"/>
    </party>
  </attester>
  <custodian>
    <reference value="#021fff67-c5ec-438f-9520-ce9bafee1306"/>
  </custodian>
  <section>
    <title value="Current Medications"/>
    <code>
      <coding>
        <system value="https://healthterminologies.gov.au/fhir/CodeSystem/nctis-data-components-1"/>
        <code value="101.32009"/>
        <display value="Current Medicine"/>
      </coding>
    </code>
    <text>
      <status value="additional"/>
      <div xmlns="http://www.w3.org/1999/xhtml">
        <table border="5">
          <caption>Medications</caption>
          <thead>
            <tr>
              <th>Medication</th>
              <th>Dose</th>
              <th>Purpose/Comment</th>
            </tr>
          </thead>
          <tbody>
            <tr>
              <td>Candesartan 32mg</td>
              <td>1 d</td>
              <td/>
            </tr>
            <tr>
              <td>Metformin 500mg</td>
              <td>1 bd</td>
              <td/>
            </tr>
            <tr>
              <td>Candesartan 8mg</td>
              <td>0.5 d</td>
              <td/>
            </tr>
          </tbody>
        </table>
      </div>
    </text>
    <entry>
      <reference value="#f7583f71-7736-4d10-89f7-fa1845e53120"/>
    </entry>
    <entry>
      <reference value="#314619c2-2d97-4fb9-9c25-b0b9da92f804"/>
    </entry>
    <entry>
      <reference value="#90d418aa-ed53-447b-95d2-099101ed4339"/>
    </entry>
  </section>
  <section>
    <title value="Allergies and Adverse Reactions"/>
    <code>
      <coding>
        <system value="http://loinc.org"/>
        <code value="48765-2"/>
        <display value="Allergies and or adverse reactions"/>
      </coding>
    </code>
    <text>
      <status value="additional"/>
      <div xmlns="http://www.w3.org/1999/xhtml">
        <p>No known medication allergies.</p>
      </div>
    </text>
    <entry>
      <reference value="#a5e03840-1be4-43e0-acd2-c9e288adc4f9"/>
    </entry>
  </section>
  <section>
    <title value="Medical History"/>
    <code>
      <coding>
        <system value="https://healthterminologies.gov.au/fhir/CodeSystem/nctis-data-components-1"/>
        <code value="101.16117"/>
      </coding>
    </code>
    <text>
      <status value="additional"/>
      <div xmlns="http://www.w3.org/1999/xhtml">
        <table border="5">
          <caption>Problems and Diagnoses</caption>
          <thead>
            <tr>
              <th>Condition</th>
              <th>Onset</th>
              <th>Abatement / Resolution</th>
            </tr>
          </thead>
          <tbody>
            <tr>
              <td>Atrial fibrillation</td>
              <td>2017</td>
              <td>-</td>
            </tr>
            <tr>
              <td>Right lower zone pneumonia</td>
              <td>March 2017</td>
              <td>April 2017</td>
            </tr>
          </tbody>
        </table>
        <table border="5">
          <caption>Procedures</caption>
          <thead>
            <tr>
              <th>Procedure</th>
              <th>Date</th>
            </tr>
          </thead>
          <tbody>
            <tr>
              <td>Total replacement of left knee joint</td>
              <td>27 February 2015</td>
            </tr>
          </tbody>
        </table>
      </div>
    </text>
    <entry>
      <reference value="#b021320c-bc5e-4ae8-b9fc-1ed2d876e889"/>
    </entry>
    <entry>
      <reference value="#cfa41daf-b5a6-4a05-9166-a4b7c23f08a1"/>
    </entry>
    <entry>
      <reference value="#3bc4a0f3-1d3e-4bde-83a9-7a04dd5f4a77"/>
    </entry>
  </section>
  <section>
    <title value="Immunisations"/>
    <code>
      <coding>
        <system value="http://loinc.org"/>
        <code value="11369-6"/>
      </coding>
    </code>
    <text>
      <status value="additional"/>
      <div xmlns="http://www.w3.org/1999/xhtml">Unknown</div>
    </text>
    <emptyReason>
      <coding>
        <system value="http://hl7.org/fhir/list-empty-reason"/>
        <code value="unavailable"/>
        <display value="Unavailable"/>
      </coding>
      <text value="Unknown"/>
    </emptyReason>
  </section>
</Composition>