<ExplanationOfBenefit xmlns="http://hl7.org/fhir">
	<id value="explanationofbenefit-mbs-example-01"/>
	<meta>
		<profile value="http://ns.electronichealth.net.au/ci/fhir/StructureDefinition/explanationofbenefit-medicare"/>
	</meta>
	<contained>
		<ReferralRequest xmlns="http://hl7.org/fhir">
			<id value="ReferralRequest1"/>
			<meta>
				<profile value="http://ns.electronichealth.net.au/ci/fhir/StructureDefinition/referralrequest-mbsdva"/>
			</meta>
			<status value="completed"/>
			<intent value="order"/>
			<subject>
				<identifier>
					<type>
						<coding>
							<system value="http://hl7.org/fhir/v2/0203"/>
							<code value="NI"/>
							<display value="National unique individual identifier"/>
						</coding>
					</type>
					<system value="http://ns.electronichealth.net.au/id/hi/ihi/1.0"/>
					<value value="8003608166690503"/>
				</identifier>
			</subject>
			<requester>
				<agent>
					<reference value="#Practitioner2"/>
				</agent>
			</requester>
		</ReferralRequest>
	</contained>
	<contained>
		<Practitioner xmlns="http://hl7.org/fhir">
			<id value="Practitioner1"/>
			<meta>
				<profile value="http://hl7.org.au/fhir/StructureDefinition/au-practitioner"/>
			</meta>
			<identifier>
				<type>
					<coding>
						<system value="http://hl7.org/fhir/v2/0203"/>
						<code value="NPI"/>
						<display value="National provider identifier"/>
					</coding>
					<text value="HPI-I"/>
				</type>
				<system value="http://ns.electronichealth.net.au/id/hi/hpii/1.0"/>
				<value value="8003610833334085"/>
			</identifier>
		</Practitioner>
	</contained>
	<contained>
		<Practitioner xmlns="http://hl7.org/fhir">
			<id value="Practitioner2"/>
			<meta>
				<profile value="http://hl7.org.au/fhir/StructureDefinition/au-practitioner"/>
			</meta>
			<identifier>
				<type>
					<coding>
						<system value="http://hl7.org.au/fhir/v2/0203"/>
						<code value="PRES"/>
						<display value="Prescriber Number"/>
					</coding>
					<text value="Prescriber Number"/>
				</type>
				<system value="http://ns.electronichealth.net.au/id/prescriber-number"/>
				<value value="453221"/>
			</identifier>
			<name>
				<family value="Good"/>
				<given value="Fab"/>
				<prefix value="Dr"/>
			</name>
		</Practitioner>
	</contained>
	<identifier>
		<system value="urn:ietf:rfc:3986"/>
		<value value="urn:oid:2.25.129844986816735724544008039950138526110"/>
	</identifier>
	<type>
		<coding>
			<system value="http://hl7.org/fhir/ex-claimtype"/>
			<code value="professional"/>
		</coding>
	</type>
	<subType>
		<coding>
			<system value="https://healthterminologies.gov.au/fhir/CodeSystem/australian-benefit-payment-category-1"/>
			<code value="mbs"/>
		</coding>
	</subType>
	<patient>
		<identifier>
			<type>
				<coding>
					<system value="http://hl7.org/fhir/v2/0203"/>
					<code value="NI"/>
					<display value="National unique individual identifier"/>
				</coding>
			</type>
			<system value="http://ns.electronichealth.net.au/id/hi/ihi/1.0"/>
			<value value="8003608166690503"/>
		</identifier>
	</patient>
	<created value="2016-06-21"/>
	<provider>
		<reference value="#Practitioner1"/>
	</provider>
	<referral>
		<reference value="#ReferralRequest1"/>
	</referral>
	<item>
		<sequence value="1"/>
		<category>
			<coding>
				<system value="https://healthterminologies.gov.au/fhir/CodeSystem/australian-benefit-payment-category-1"/>
				<code value="mbs"/>
				<display value="MBS"/>
			</coding>
		</category>
		<service>
			<coding>
				<system value="urn:oid:1.2.36.1.2001.1005.21"/>
				<code value="15275"/>
				<display value="Radiation oncology treatment"/>
			</coding>
		</service>
		<servicedDate value="2016-06-16"/>
		<locationCodeableConcept>
			<coding>
				<system value="http://hl7.org/fhir/ex-serviceplace"/>
				<code value="21"/>
				<display value="Inpatient Hospital"/>
			</coding>
		</locationCodeableConcept>
	</item>
</ExplanationOfBenefit>
