<ExplanationOfBenefit xmlns:xsi="http://www.w3.org/2001/XMLSchema-instance"
	xmlns="http://hl7.org/fhir">
	<id value="explanationofbenefit-pbs-example-01"/>
	<meta>
		<profile
			value="http://ns.electronichealth.net.au/ci/fhir/StructureDefinition/explanationofbenefit-medicare"
		/>
	</meta>
	<contained>
		<Medication xmlns="http://hl7.org/fhir">
			<id value="Medication1"/>
			<code>
				<coding>
					<system value="urn:oid:1.2.36.1.2001.1005.22"/>
					<code value="03119E"/>
					<display value="cephalexin 500 mg capsule, 20"/>
				</coding>
			</code>
		</Medication>
	</contained>
	<contained>
		<MedicationRequest xmlns="http://hl7.org/fhir">
			<id value="MedicationRequest1"/>
			<meta>
				<profile
					value="http://ns.electronichealth.net.au/ci/fhir/StructureDefinition/medicationrequest-pbs"
				/>
			</meta>
			<status value="active"/>
			<intent value="order"/>
			<medicationReference>
				<reference value="#Medication1"/>
			</medicationReference>
			<subject>
				<identifier>
					<type>
						<coding>
							<system value="http://hl7.org/fhir/v2/0203"/>
							<code value="NI"/>
							<display value="National unique individual identifier"/>
						</coding>
					</type>
					<system value="http://ns.electronichealth.net.au/id/hi/ihi/1.0"/>
					<value value="8003608833357361"/>
				</identifier>
			</subject>
			<authoredOn value="2017-01-15"/>
			<dispenseRequest>
				<numberOfRepeatsAllowed value="1"/>
				<quantity>
					<value value="500"/>
					<unit value="tablet"/>
				</quantity>
			</dispenseRequest>
		</MedicationRequest>
	</contained>
	<identifier>
		<system value="urn:ietf:rfc:3986"/>
		<value value="urn:oid:2.25.129844986816735724544008039950138526110"/>
	</identifier>
	<patient>
		<identifier>
			<type>
				<coding>
					<system value="http://hl7.org/fhir/v2/0203"/>
					<code value="NI"/>
					<display value="National unique individual identifier"/>
				</coding>
			</type>
			<system value="http://ns.electronichealth.net.au/id/hi/ihi/1.0"/>
			<value value="8003608833357361"/>
		</identifier>
	</patient>
	<created value="2017-01-16"/>
	<prescription>
		<reference value="#MedicationRequest1"/>
	</prescription>
	<item>
		<sequence value="1"/>
		<category>
			<coding>
				<system
					value="https://healthterminologies.gov.au/fhir/CodeSystem/australian-benefit-payment-category-1"/>
				<code value="pbs"/>
				<display value="PBS"/>
			</coding>
		</category>
		<service>
			<coding>
				<system value="urn:oid:1.2.36.1.2001.1005.22"/>
				<code value="03119E"/>
				<display value="cephalexin 500 mg capsule, 20"/>
			</coding>
		</service>
		<servicedDate value="2017-01-16"/>
	</item>
</ExplanationOfBenefit>
