<?xml version="1.0" encoding="UTF-8"?>

<ExplanationOfBenefit xmlns="http://hl7.org/fhir">
  <id value="explanationofbenefit-pbs-example-01"/>
  <meta>
    <profile value="http://ns.electronichealth.net.au/ci/fhir/StructureDefinition/explanationofbenefit-medicare"/>
  </meta>
  <text>
    <status value="generated"/><div xmlns="http://www.w3.org/1999/xhtml"><p><b>Generated Narrative with Details</b></p><p><b>id</b>: explanationofbenefit-pbs-example-01</p><p><b>meta</b>: </p><p><b>contained</b>: , </p><p><b>identifier</b>: urn:oid:2.25.129844986816735724544008039950138526110</p><p><b>patient</b>: </p><p><b>created</b>: 16/01/2017</p><p><b>prescription</b>: unknown resource contained</p><h3>Items</h3><table class="grid"><tr><td>-</td><td><b>Sequence</b></td><td><b>Category</b></td><td><b>Service</b></td><td><b>Serviced[x]</b></td></tr><tr><td>*</td><td>1</td><td>PBS <span style="background: LightGoldenRodYellow">(Details : {https://healthterminologies.gov.au/fhir/CodeSystem/australian-benefit-payment-category-1 code 'pbs' = 'pbs', given as 'PBS'})</span></td><td>cephalexin 500 mg capsule, 20 <span style="background: LightGoldenRodYellow">(Details : {urn:oid:1.2.36.1.2001.1005.22 code '03119E' = '03119E', given as 'cephalexin 500 mg capsule, 20'})</span></td><td>16/01/2017</td></tr></table></div>
  </text>
  <contained>
    <Medication>
      <id value="Medication1"/>
      <code>
        <coding>
          <system value="urn:oid:1.2.36.1.2001.1005.22"/>
          <code value="03119E"/>
          <display value="cephalexin 500 mg capsule, 20"/>
        </coding>
      </code>
    </Medication>
  </contained>
  <contained>
    <MedicationRequest>
      <id value="MedicationRequest1"/>
      <meta>
        <profile value="http://ns.electronichealth.net.au/ci/fhir/StructureDefinition/medicationrequest-pbs"/>
      </meta>
      <status value="active"/>
      <intent value="order"/>
      <medicationReference>
        <reference value="#Medication1"/>
      </medicationReference>
      <subject>
        <identifier>
          <type>
            <coding>
              <system value="http://hl7.org/fhir/v2/0203"/>
              <code value="NI"/>
              <display value="National unique individual identifier"/>
            </coding>
          </type>
          <system value="http://ns.electronichealth.net.au/id/hi/ihi/1.0"/>
          <value value="8003608166690503"/>
        </identifier>
      </subject>
      <authoredOn value="2017-01-15"/>
      <dispenseRequest>
        <numberOfRepeatsAllowed value="1"/>
        <quantity>
          <value value="500"/>
          <unit value="tablet"/>
        </quantity>
      </dispenseRequest>
    </MedicationRequest>
  </contained>
  <identifier>
    <system value="urn:ietf:rfc:3986"/>
    <value value="urn:oid:2.25.129844986816735724544008039950138526110"/>
  </identifier>
  <patient>
    <identifier>
      <type>
        <coding>
          <system value="http://hl7.org/fhir/v2/0203"/>
          <code value="NI"/>
          <display value="National unique individual identifier"/>
        </coding>
      </type>
      <system value="http://ns.electronichealth.net.au/id/hi/ihi/1.0"/>
      <value value="8003608166690503"/>
    </identifier>
  </patient>
  <created value="2017-01-16"/>
  <prescription>
    <reference value="#MedicationRequest1"/>
  </prescription>
  <item>
    <sequence value="1"/>
    <category>
      <coding>
        <system value="https://healthterminologies.gov.au/fhir/CodeSystem/australian-benefit-payment-category-1"/>
        <code value="pbs"/>
        <display value="PBS"/>
      </coding>
    </category>
    <service>
      <coding>
        <system value="urn:oid:1.2.36.1.2001.1005.22"/>
        <code value="03119E"/>
        <display value="cephalexin 500 mg capsule, 20"/>
      </coding>
    </service>
    <servicedDate value="2017-01-16"/>
  </item>
</ExplanationOfBenefit>