{
  "resourceType": "Bundle",
  "id": "205fcc4b-baf2-4683-a48f-b087a5937230",
  "meta": {
    "lastUpdated": "2018-09-21T09:01:00+10:00"
  },
  "identifier": {
    "system": "urn:ietf:rfc:3986",
    "value": "urn:uuid:e63acc0c-262b-4a51-bbec-477adf351f83"
  },
  "type": "document",
  "entry": [
    {
      "fullUrl": "urn:uuid:ff0gh111a-cc0f-4c3d-a4cd-a35ceafff999",
      "resource": {
        "resourceType": "Composition",
        "id": "ff0gh111a-cc0f-4c3d-a4cd-a35ceafff999",
        "meta": {
          "profile": [
            "http://ns.electronichealth.net.au/ci/fhir/3.0/StructureDefinition/composition-shs-1"
          ]
        },
        "language": "en-AU",
        "text": {
          "status": "extensions",
          "div": "<div xmlns=\"http://www.w3.org/1999/xhtml\" lang=\"en-AU\">\n                        <p>\n                            <b>Composition</b>\n                        </p>\n                        <p><b>status</b>: final</p>\n                        <p><b>type</b>: Patient summary Document</p>\n                        <p><b>date</b>: 21/09/2018 9:00:00 AM</p>\n                        <p><b>author</b>: HPI-I = 8003610000000000; Barry Helpman; bhelpman@example.devonportgp.com.au (WORK)</p>\n                        <p><b>author role</b>: Medicare Provider Number: 5544887B, HPI-I = 8003610000000000; Barry Helpman; Devonport Family Medicine\n                            Clinic; General Practitioner</p>\n                        <p><b>title</b>: Shared Health Summary</p>\n                        <p><b>attester</b>: Mode: legal; Time: 21/09/2018 9:00:00 AM; Party: HPI-I = 8003610000000000; Barry Helpman</p>\n                        <p><b>custodian</b>: ABN = 51824754455; Devonport Family Medicine Clinic; reception@example.dfmc.com.au(WORK), fax: (03) 8543\n                            5557(WORK), ph: (03) 8543 5556(WORK)</p>\n                    </div>"
        },
        "extension": [
          {
            "url": "http://hl7.org.au/fhir/StructureDefinition/composition-author-role",
            "valueReference": {
              "reference": "urn:uuid:45cad6ac-e9a3-418a-8480-4e64132849f2"
            }
          }
        ],
        "status": "final",
        "type": {
          "coding": [
            {
              "system": "http://loinc.org",
              "code": "60591-5",
              "display": "Patient summary Document"
            }
          ]
        },
        "subject": {
          "reference": "urn:uuid:cc246543-a0da-4ead-9ed6-5e064fea9ff7"
        },
        "date": "2018-09-21T09:00:00+10:00",
        "author": [
          {
            "reference": "urn:uuid:40a94071-8373-4d53-a788-63b79c75a3c1"
          }
        ],
        "title": "Shared Health Summary",
        "attester": [
          {
            "mode": [
              "legal"
            ],
            "time": "2018-09-21T09:00:00+10:00",
            "party": {
              "reference": "urn:uuid:40a94071-8373-4d53-a788-63b79c75a3c1"
            }
          }
        ],
        "custodian": {
          "reference": "urn:uuid:021fff67-c5ec-438f-9520-ce9bafee1306"
        },
        "section": [
          {
            "title": "Current Medications",
            "code": {
              "coding": [
                {
                  "system": "https://healthterminologies.gov.au/fhir/CodeSystem/nctis-data-components-1",
                  "code": "101.32009",
                  "display": "Current Medicine"
                }
              ]
            },
            "text": {
              "status": "additional",
              "div": "<div xmlns=\"http://www.w3.org/1999/xhtml\" lang=\"en-AU\">\n                            <table border=\"5\">\n                                <caption>Medications</caption>\n                                <thead>\n                                    <tr>\n                                        <th>Medication</th>\n                                        <th>Dose</th>\n                                        <th>Purpose/Comment</th>\n                                    </tr>\n                                </thead>\n                                <tbody>\n                                    <tr>\n                                        <td>Candesartan 32mg</td>\n                                        <td>1 d</td>\n                                        <td/>\n                                    </tr>\n                                    <tr>\n                                        <td>Metformin 500mg</td>\n                                        <td>1 bd</td>\n                                        <td/>\n                                    </tr>\n                                    <tr>\n                                        <td>Candesartan 8mg</td>\n                                        <td>0.5 d</td>\n                                        <td/>\n                                    </tr>\n                                </tbody>\n                            </table>\n                        </div>"
            },
            "entry": [
              {
                "reference": "urn:uuid:yh783f71-7736-4d10-89f7-fa1845e53987"
              }
            ]
          },
          {
            "title": "Allergies and Adverse Reactions",
            "code": {
              "coding": [
                {
                  "system": "http://loinc.org",
                  "code": "48765-2",
                  "display": "Allergies and adverse reactions Document"
                }
              ]
            },
            "text": {
              "status": "additional",
              "div": "<div xmlns=\"http://www.w3.org/1999/xhtml\" lang=\"en-AU\">\n                            <p>No available information.</p>\n                        </div>"
            },
            "emptyReason": {
              "coding": [
                {
                  "system": "http://hl7.org/fhir/list-empty-reason",
                  "code": "unavailable",
                  "display": "Unavailable"
                }
              ]
            }
          },
          {
            "title": "Medical History",
            "code": {
              "coding": [
                {
                  "system": "https://healthterminologies.gov.au/fhir/CodeSystem/nctis-data-components-1",
                  "code": "101.16117",
                  "display": "Medical History"
                }
              ]
            },
            "text": {
              "status": "additional",
              "div": "<div xmlns=\"http://www.w3.org/1999/xhtml\" lang=\"en-AU\">\n                            <p>No relevant medical history.</p>\n                        </div>"
            },
            "entry": [
              {
                "reference": "urn:uuid:ty65cc78-60b0-41cb-83d4-32521d3b9fa2"
              }
            ]
          },
          {
            "title": "Immunisations",
            "code": {
              "coding": [
                {
                  "system": "http://loinc.org",
                  "code": "11369-6",
                  "display": "History of Immunization Narrative"
                }
              ]
            },
            "text": {
              "status": "additional",
              "div": "<div xmlns=\"http://www.w3.org/1999/xhtml\" lang=\"en-AU\">2017-04-15: diphtheria + tetanus</div>"
            },
            "entry": [
              {
                "reference": "urn:uuid:hgi72daf-b5a6-4a05-9166-a4b7c23f08a1"
              }
            ]
          }
        ]
      }
    },
    {
      "fullUrl": "urn:uuid:cc246543-a0da-4ead-9ed6-5e064fea9ff7",
      "resource": {
        "resourceType": "Patient",
        "id": "cc246543-a0da-4ead-9ed6-5e064fea9ff7",
        "meta": {
          "profile": [
            "http://ns.electronichealth.net.au/ci/fhir/3.0/StructureDefinition/patient-ident-1",
            "http://ns.electronichealth.net.au/ci/fhir/3.0/StructureDefinition/patient-ihi-1"
          ]
        },
        "text": {
          "status": "extensions",
          "div": "<div xmlns=\"http://www.w3.org/1999/xhtml\">\n                        <p>\n                            <b>Patient</b>\n                        </p>\n                        <p><b>identifier</b>: National unique individual identifier = 8003608666701594</p>\n                        <p><b>name</b>: Joe Greatpatient </p>\n                        <p><b>gender</b>: male</p>\n                        <p><b>birthDate</b>: 23/08/1956</p>\n                        <p><b>generalPractitioner</b>: Good Doctor</p>\n                        <p><b>managingOrganization</b>: ABN = 51824754455; name: Devonport Family Medicine Clinic;\n                            reception@example.dfmc.com.au(WORK), fax: (03) 8543 5557(WORK), ph: (03) 8543 5556(WORK)</p>\n                        <p><b>indigenous status</b>: Not stated/inadequately described</p>\n                    </div>"
        },
        "extension": [
          {
            "url": "http://hl7.org.au/fhir/StructureDefinition/indigenous-status",
            "valueCoding": {
              "system": "https://healthterminologies.gov.au/fhir/CodeSystem/australian-indigenous-status-1",
              "code": "9",
              "display": "Not stated/inadequately described"
            }
          }
        ],
        "identifier": [
          {
            "type": {
              "coding": [
                {
                  "system": "http://hl7.org/fhir/v2/0203",
                  "code": "NI",
                  "display": "National unique individual identifier"
                }
              ]
            },
            "system": "http://ns.electronichealth.net.au/id/hi/ihi/1.0",
            "value": "8003608666701594"
          }
        ],
        "name": [
          {
            "family": "Greatpatient",
            "given": [
              "Joe"
            ]
          }
        ],
        "gender": "male",
        "birthDate": "1956-08-23",
        "_birthDate": {
          "extension": [
            {
              "url": "http://hl7.org.au/fhir/StructureDefinition/date-accuracy-indicator",
              "valueCoding": {
                "system": "https://healthterminologies.gov.au/fhir/CodeSystem/date-accuracy-indicator-1",
                "code": "AAE",
                "display": "Day and month are accurate, year is estimated"
              }
            },
            {
              "url": "http://hl7.org/fhir/StructureDefinition/patient-birthTime",
              "valueDateTime": "1956-08-23T15:07:00+10:00"
            }
          ]
        },
        "generalPractitioner": [
          {
            "reference": "urn:uuid:20f15728-f3ac-4877-b55a-107f94dbd00c"
          }
        ],
        "managingOrganization": {
          "reference": "urn:uuid:021fff67-c5ec-438f-9520-ce9bafee1306"
        }
      }
    },
    {
      "fullUrl": "urn:uuid:45cad6ac-e9a3-418a-8480-4e64132849f2",
      "resource": {
        "resourceType": "PractitionerRole",
        "id": "45cad6ac-e9a3-418a-8480-4e64132849f2",
        "meta": {
          "profile": [
            "http://ns.electronichealth.net.au/ci/fhir/3.0/StructureDefinition/practitionerrole-withpractitioner-1"
          ]
        },
        "text": {
          "status": "generated",
          "div": "<div xmlns=\"http://www.w3.org/1999/xhtml\"><p><b>Generated Narrative with Details</b></p><p><b>id</b>: 45cad6ac-e9a3-418a-8480-4e64132849f2</p><p><b>meta</b>: </p><p><b>identifier</b>: Medicare Provider Number = 5544887B, HPI-I = 8003610000000000</p><p><b>practitioner</b>: <a href=\"urn:uuid:40a94071-8373-4d53-a788-63b79c75a3c1\">urn:uuid:40a94071-8373-4d53-a788-63b79c75a3c1</a></p><p><b>organization</b>: <a href=\"urn:uuid:021fff67-c5ec-438f-9520-ce9bafee1306\">urn:uuid:021fff67-c5ec-438f-9520-ce9bafee1306</a></p><p><b>code</b>: GP <span style=\"background: LightGoldenRodYellow\">(Details : {http://www.abs.gov.au/ausstats/abs@.nsf/mf/1220.0 code '253111' = '253111', given as 'General Practitioner'})</span></p></div>"
        },
        "identifier": [
          {
            "type": {
              "coding": [
                {
                  "system": "http://hl7.org.au/fhir/v2/0203",
                  "code": "UPIN"
                }
              ],
              "text": "Medicare Provider Number"
            },
            "system": "http://ns.electronichealth.net.au/id/medicare-provider-number",
            "value": "5544887B"
          },
          {
            "type": {
              "coding": [
                {
                  "system": "http://hl7.org/fhir/v2/0203",
                  "code": "NPI",
                  "display": "National provider identifier"
                }
              ],
              "text": "HPI-I"
            },
            "system": "http://ns.electronichealth.net.au/id/hi/hpii/1.0",
            "value": "8003610000000000"
          }
        ],
        "practitioner": {
          "reference": "urn:uuid:40a94071-8373-4d53-a788-63b79c75a3c1"
        },
        "organization": {
          "reference": "urn:uuid:021fff67-c5ec-438f-9520-ce9bafee1306"
        },
        "code": [
          {
            "coding": [
              {
                "system": "http://www.abs.gov.au/ausstats/abs@.nsf/mf/1220.0",
                "code": "253111",
                "display": "General Practitioner"
              }
            ],
            "text": "GP"
          }
        ]
      }
    },
    {
      "fullUrl": "urn:uuid:40a94071-8373-4d53-a788-63b79c75a3c1",
      "resource": {
        "resourceType": "Practitioner",
        "id": "40a94071-8373-4d53-a788-63b79c75a3c1",
        "meta": {
          "profile": [
            "http://ns.electronichealth.net.au/ci/fhir/3.0/StructureDefinition/practitioner-dh-base-1",
            "http://ns.electronichealth.net.au/ci/fhir/3.0/StructureDefinition/practitioner-ident-1"
          ]
        },
        "text": {
          "status": "generated",
          "div": "<div xmlns=\"http://www.w3.org/1999/xhtml\"><p><b>Generated Narrative with Details</b></p><p><b>id</b>: 40a94071-8373-4d53-a788-63b79c75a3c1</p><p><b>meta</b>: </p><p><b>identifier</b>: HPI-I = 8003610000000000</p><p><b>name</b>: Barry Helpman (OFFICIAL)</p><p><b>telecom</b>: bhelpman@example.devonportgp.com.au(WORK)</p><h3>Qualifications</h3><table class=\"grid\"><tr><td>-</td><td><b>Identifier</b></td><td><b>Code</b></td><td><b>Issuer</b></td></tr><tr><td>*</td><td>AHPRA Registration Number = MED0000932850</td><td>AHPRA qualification for General Practitioner <span style=\"background: LightGoldenRodYellow\">(Details : {http://www.abs.gov.au/ausstats/abs@.nsf/mf/1220.0 code '253111' = '253111', given as 'General Medical Practitioner'})</span></td><td>AHPRA</td></tr></table></div>"
        },
        "identifier": [
          {
            "type": {
              "coding": [
                {
                  "system": "http://hl7.org/fhir/v2/0203",
                  "code": "NPI",
                  "display": "National provider identifier"
                }
              ],
              "text": "HPI-I"
            },
            "system": "http://ns.electronichealth.net.au/id/hi/hpii/1.0",
            "value": "8003610000000000"
          }
        ],
        "name": [
          {
            "use": "official",
            "family": "Helpman",
            "given": [
              "Barry"
            ],
            "suffix": [
              "M.D."
            ]
          }
        ],
        "telecom": [
          {
            "system": "email",
            "value": "bhelpman@example.devonportgp.com.au",
            "use": "work"
          }
        ],
        "qualification": [
          {
            "identifier": [
              {
                "type": {
                  "coding": [
                    {
                      "system": "http://hl7.org.au/fhir/v2/0203",
                      "code": "AHPRA",
                      "display": "Australian Health Practitioner Regulation Agency Registration Number"
                    }
                  ],
                  "text": "AHPRA Registration Number"
                },
                "system": "http://hl7.org.au/id/ahpra-registration-number",
                "value": "MED0000932850"
              }
            ],
            "code": {
              "coding": [
                {
                  "system": "http://www.abs.gov.au/ausstats/abs@.nsf/mf/1220.0",
                  "code": "253111",
                  "display": "General Medical Practitioner"
                }
              ],
              "text": "AHPRA qualification for General Practitioner"
            },
            "issuer": {
              "display": "AHPRA"
            }
          }
        ]
      }
    },
    {
      "fullUrl": "urn:uuid:20f15728-f3ac-4877-b55a-107f94dbd00c",
      "resource": {
        "resourceType": "Practitioner",
        "id": "20f15728-f3ac-4877-b55a-107f94dbd00c",
        "meta": {
          "profile": [
            "http://ns.electronichealth.net.au/ci/fhir/3.0/StructureDefinition/practitioner-dh-base-1"
          ]
        },
        "text": {
          "status": "generated",
          "div": "<div xmlns=\"http://www.w3.org/1999/xhtml\"><p><b>Generated Narrative with Details</b></p><p><b>id</b>: 20f15728-f3ac-4877-b55a-107f94dbd00c</p><p><b>meta</b>: </p><p><b>name</b>: Good Doctor (OFFICIAL)</p></div>"
        },
        "name": [
          {
            "use": "official",
            "family": "Doctor",
            "given": [
              "Good"
            ],
            "prefix": [
              "Dr."
            ]
          }
        ]
      }
    },
    {
      "fullUrl": "urn:uuid:021fff67-c5ec-438f-9520-ce9bafee1306",
      "resource": {
        "resourceType": "Organization",
        "id": "021fff67-c5ec-438f-9520-ce9bafee1306",
        "meta": {
          "profile": [
            "http://ns.electronichealth.net.au/ci/fhir/3.0/StructureDefinition/organization-ident-1"
          ]
        },
        "text": {
          "status": "generated",
          "div": "<div xmlns=\"http://www.w3.org/1999/xhtml\"><p><b>Generated Narrative with Details</b></p><p><b>id</b>: 021fff67-c5ec-438f-9520-ce9bafee1306</p><p><b>meta</b>: </p><p><b>identifier</b>: ABN = 51824754455</p><p><b>name</b>: Devonport Family Medicine Clinic</p><p><b>telecom</b>: reception@example.dfmc.com.au(WORK), fax: (03) 8543 5557(WORK), ph: (03) 8543 5556(WORK)</p><p><b>address</b>: LPO Box 235 Strahan TAS 7468 AU </p></div>"
        },
        "identifier": [
          {
            "type": {
              "text": "ABN"
            },
            "system": "http://hl7.org.au/id/abn",
            "value": "51824754455"
          }
        ],
        "name": "Devonport Family Medicine Clinic",
        "telecom": [
          {
            "system": "email",
            "value": "reception@example.dfmc.com.au",
            "use": "work"
          },
          {
            "system": "fax",
            "value": "(03) 8543 5557",
            "use": "work"
          },
          {
            "system": "phone",
            "value": "(03) 8543 5556",
            "use": "work"
          }
        ],
        "address": [
          {
            "type": "postal",
            "line": [
              "LPO Box 235"
            ],
            "city": "Strahan",
            "state": "TAS",
            "postalCode": "7468",
            "country": "AU"
          }
        ]
      }
    },
    {
      "fullUrl": "urn:uuid:yh783f71-7736-4d10-89f7-fa1845e53987",
      "resource": {
        "resourceType": "MedicationStatement",
        "id": "yh783f71-7736-4d10-89f7-fa1845e53987",
        "meta": {
          "profile": [
            "http://ns.electronichealth.net.au/ci/fhir/3.0/StructureDefinition/medicationstatement-summary-1"
          ]
        },
        "text": {
          "status": "generated",
          "div": "<div xmlns=\"http://www.w3.org/1999/xhtml\"><p><b>Generated Narrative with Details</b></p><p><b>id</b>: yh783f71-7736-4d10-89f7-fa1845e53987</p><p><b>meta</b>: </p><p><b>status</b>: active</p><p><b>medication</b>: Candesartan 32mg <span style=\"background: LightGoldenRodYellow\">(Details : {SNOMED CT code '22087011000036100' = '22087011000036100', given as 'candesartan cilexetil 32 mg tablet'})</span></p><p><b>subject</b>: <a href=\"urn:uuid:cc246543-a0da-4ead-9ed6-5e064fea9ff7\">urn:uuid:cc246543-a0da-4ead-9ed6-5e064fea9ff7</a></p><p><b>taken</b>: y</p><p><b>dosage</b>: </p></div>"
        },
        "status": "active",
        "medicationCodeableConcept": {
          "coding": [
            {
              "system": "http://snomed.info/sct",
              "code": "22087011000036100",
              "display": "candesartan cilexetil 32 mg tablet"
            }
          ],
          "text": "Candesartan 32mg"
        },
        "subject": {
          "reference": "urn:uuid:cc246543-a0da-4ead-9ed6-5e064fea9ff7"
        },
        "taken": "y",
        "dosage": [
          {
            "text": "1 d",
            "timing": {
              "repeat": {
                "frequency": 1,
                "period": 1,
                "periodUnit": "d"
              }
            },
            "doseQuantity": {
              "value": 1,
              "unit": "﻿tablet",
              "system": "http://snomed.info/sct",
              "code": "63011000036109"
            }
          }
        ]
      }
    },
    {
      "fullUrl": "urn:uuid:ty65cc78-60b0-41cb-83d4-32521d3b9fa2",
      "resource": {
        "resourceType": "Observation",
        "id": "ty65cc78-60b0-41cb-83d4-32521d3b9fa2",
        "meta": {
          "profile": [
            "http://ns.electronichealth.net.au/ci/fhir/3.0/StructureDefinition/observation-norelevantfinding-1"
          ]
        },
        "text": {
          "status": "generated",
          "div": "<div xmlns=\"http://www.w3.org/1999/xhtml\">\n                        <p>\n                            <b>Observation</b>\n                        </p>\n                        <p><b>subject</b>: <a href=\"Patient-cc246543-a0da-4ead-9ed6-5e064fea9ff7.html\">id: National unique individual identifier =\n                                8003608666701594; Joe Greatpatient ; gender: male; birthDate: 23/08/1956</a></p>\n                        <p><b>status</b>: final</p>\n                        <p><b>code</b>: Assertion</p>\n                        <p><b>value</b>: No relevant medical history</p>\n                        <p><b>effective</b>: 21/09/2018</p>\n                    </div>"
        },
        "status": "final",
        "code": {
          "coding": [
            {
              "system": "http://hl7.org/fhir/v3/ActCode",
              "code": "ASSERTION",
              "display": "Assertion"
            }
          ]
        },
        "subject": {
          "reference": "urn:uuid:cc246543-a0da-4ead-9ed6-5e064fea9ff7"
        },
        "effectiveDateTime": "2018-09-21",
        "valueCodeableConcept": {
          "coding": [
            {
              "system": "http://snomed.info/sct",
              "code": "1224831000168103",
              "display": "No relevant medical history"
            }
          ]
        }
      }
    },
    {
      "fullUrl": "urn:uuid:hgi72daf-b5a6-4a05-9166-a4b7c23f08a1",
      "resource": {
        "resourceType": "Immunization",
        "id": "hgi72daf-b5a6-4a05-9166-a4b7c23f08a1",
        "meta": {
          "profile": [
            "http://ns.electronichealth.net.au/ci/fhir/3.0/StructureDefinition/immunization-summary-administration-1"
          ]
        },
        "text": {
          "status": "extensions",
          "div": "<div xmlns=\"http://www.w3.org/1999/xhtml\">\n                        <p>\n                            <b>Immunization statement</b>\n                        </p>\n                        <p><b>patient</b>: <a href=\"Patient-cc246543-a0da-4ead-9ed6-5e064fea9ff7.html\">id: National unique individual identifier =\n                                8003608666701594; Joe Greatpatient ; gender: male; birthDate: 23/08/1956</a></p>\n                        <p><b>status</b>: completed</p>\n                        <p><b>notGiven</b>: false</p>\n                        <p><b>vaccineCode</b>: diphtheria 2 units + tetanus 20 units vaccine injection, 0.5 mL syringe</p>\n                        <p><b>date</b>: 15/04/2017</p>\n                        <p><b>primarySource</b>: true</p>\n                    </div>"
        },
        "status": "completed",
        "notGiven": false,
        "vaccineCode": {
          "coding": [
            {
              "system": "http://snomed.info/sct",
              "code": "837281000168100",
              "display": "diphtheria 2 units + tetanus 20 units vaccine injection, 0.5 mL syringe"
            }
          ]
        },
        "patient": {
          "reference": "urn:uuid:cc246543-a0da-4ead-9ed6-5e064fea9ff7"
        },
        "date": "2017-04-15",
        "primarySource": true
      }
    }
  ]
}