<?xml version="1.0" encoding="UTF-8"?>

<Bundle xmlns="http://hl7.org/fhir">
  <id value="205fcc4b-baf2-4683-a48f-b087a5937230"/>
  <meta>
    <lastUpdated value="2018-09-21T09:01:00+10:00"/>
  </meta>
  <identifier>
    <system value="urn:ietf:rfc:3986"/>
    <value value="urn:uuid:e63acc0c-262b-4a51-bbec-477adf351f83"/>
  </identifier>
  <type value="document"/>
<!--     Composition     -->
  <entry>
    <fullUrl value="urn:uuid:ff0gh111a-cc0f-4c3d-a4cd-a35ceafff999"/>
    <resource>
      <Composition>
        <id value="ff0gh111a-cc0f-4c3d-a4cd-a35ceafff999"/>
        <meta>
          <profile value="http://ns.electronichealth.net.au/ci/fhir/3.0/StructureDefinition/composition-shs-1"/>
        </meta>
        <language value="en-AU"/>
        <text>
          <status value="extensions"/><div xmlns="http://www.w3.org/1999/xhtml" lang="en-AU">
                        <p>Date authored: 21 SEP 2018</p>
                        <p>Patient: <b>Joe GREATPATIENT</b>; IHI: 8003608666701594</p>
                        <p>Author: Barry HELPMAN M.D. (GP); Email: bhelpman@example.devonportgp.com.au</p>
                    </div>
        </text>
        <extension url="http://hl7.org.au/fhir/StructureDefinition/composition-author-role">
          <valueReference>
            <reference value="urn:uuid:45cad6ac-e9a3-418a-8480-4e64132849f2"/>
          </valueReference>
        </extension>
        <status value="final"/>
        <type>
          <coding>
            <system value="http://loinc.org"/>
            <code value="60591-5"/>
            <display value="Patient summary Document"/>
          </coding>
        </type>
        <subject>
          <reference value="urn:uuid:cc246543-a0da-4ead-9ed6-5e064fea9ff7"/>
        </subject>
        <date value="2018-09-21T09:00:00+10:00"/>
        <author>
          <reference value="urn:uuid:40a94071-8373-4d53-a788-63b79c75a3c1"/>
        </author>
        <title value="Shared Health Summary"/>
        <attester>
          <mode value="legal"/>
          <time value="2018-09-21T09:00:00+10:00"/>
          <party>
            <reference value="urn:uuid:40a94071-8373-4d53-a788-63b79c75a3c1"/>
          </party>
        </attester>
        <custodian>
          <reference value="urn:uuid:021fff67-c5ec-438f-9520-ce9bafee1306"/>
        </custodian>
        <section>
          <title value="Current Medications"/>
          <code>
            <coding>
              <system value="https://healthterminologies.gov.au/fhir/CodeSystem/nctis-data-components-1"/>
              <code value="101.32009"/>
              <display value="Current Medicine"/>
            </coding>
          </code>
          <text>
            <status value="additional"/><div xmlns="http://www.w3.org/1999/xhtml" lang="en-AU">
                            <table border="5">
                                <caption>Medications</caption>
                                <thead>
                                    <tr>
                                        <th>Medication</th>
                                        <th>Dose</th>
                                    </tr>
                                </thead>
                                <tbody>
                                    <tr>
                                        <td>Candesartan 32mg</td>
                                        <td>1 tablet daily</td>
                                    </tr>
                                    <tr>
                                        <td>Metformin 500mg</td>
                                        <td>1 tablet twice daily</td>
                                    </tr>
                                </tbody>
                            </table>
                        </div>
          </text>
          <entry>
            <reference value="urn:uuid:2fe9873a-0eea-415a-89ae-0b82ff2b3d0b"/>
          </entry>
        </section>
        <section>
          <title value="Allergies and Adverse Reactions"/>
          <code>
            <coding>
              <system value="http://loinc.org"/>
              <code value="48765-2"/>
              <display value="Allergies and adverse reactions Document"/>
            </coding>
          </code>
          <text>
            <status value="additional"/><div xmlns="http://www.w3.org/1999/xhtml" lang="en-AU">
                            <p>No available information.</p>
                        </div>
          </text>
          <emptyReason>
            <coding>
              <system value="http://hl7.org/fhir/list-empty-reason"/>
              <code value="unavailable"/>
              <display value="Unavailable"/>
            </coding>
          </emptyReason>
        </section>
        <section>
          <title value="Medical History"/>
          <code>
            <coding>
              <system value="https://healthterminologies.gov.au/fhir/CodeSystem/nctis-data-components-1"/>
              <code value="101.16117"/>
              <display value="Medical History"/>
            </coding>
          </code>
          <text>
            <status value="additional"/><div xmlns="http://www.w3.org/1999/xhtml" lang="en-AU">
                            <p>No relevant medical history.</p>
                        </div>
          </text>
          <entry>
            <reference value="urn:uuid:552bcf1e-5e3e-45b7-9539-0a99ba860146"/>
          </entry>
        </section>
        <section>
          <title value="Immunisations"/>
          <code>
            <coding>
              <system value="http://loinc.org"/>
              <code value="11369-6"/>
              <display value="History of Immunization Narrative"/>
            </coding>
          </code>
          <text>
            <status value="additional"/><div xmlns="http://www.w3.org/1999/xhtml" lang="en-AU">
                            <table border="5">
                                <caption>Immunisations</caption>
                                <thead>
                                    <tr>
                                        <th>Vaccine</th>
                                        <th>Date administered</th>
                                    </tr>
                                </thead>
                                <tbody>
                                    <tr>
                                        <td>diphtheria + tetanus</td>
                                        <td>15 APR 2017</td>
                                        <td/>
                                    </tr>
                                </tbody>
                            </table>
                        </div>
          </text>
          <entry>
            <reference value="urn:uuid:3e2a29a1-3a3c-4a53-bb1b-66588e9bd147"/>
          </entry>
        </section>
      </Composition>
    </resource>
  </entry>
<!--     Patient     -->
  <entry>
    <fullUrl value="urn:uuid:cc246543-a0da-4ead-9ed6-5e064fea9ff7"/>
    <resource>
      <Patient>
        <id value="cc246543-a0da-4ead-9ed6-5e064fea9ff7"/>
        <text>
          <status value="extensions"/><div xmlns="http://www.w3.org/1999/xhtml">
                        <p>
                            <b>Joe GREATPATIENT</b>
                        </p>
                        <p>DoB: 23 AUG 1956</p>
                        <p>male</p>
                        <p>IHI: 8003608666701594</p>
                        <p/>
                        <p>Indigenous status: Not stated/inadequately described</p>
                        <p>GP: Dr. Good Doctor</p>
                        <p>Clinic: Devonport Family Medicine Clinic; reception@example.dfmc.com.au; ph: (03) 8543 5556</p>
                    </div>
        </text>
        <extension url="http://hl7.org.au/fhir/StructureDefinition/indigenous-status">
          <valueCoding>
            <system value="https://healthterminologies.gov.au/fhir/CodeSystem/australian-indigenous-status-1"/>
            <code value="9"/>
            <display value="Not stated/inadequately described"/>
          </valueCoding>
        </extension>
        <identifier>
          <type>
            <coding>
              <system value="http://hl7.org/fhir/v2/0203"/>
              <code value="NI"/>
              <display value="National unique individual identifier"/>
            </coding>
          </type>
          <system value="http://ns.electronichealth.net.au/id/hi/ihi/1.0"/>
          <value value="8003608666701594"/>
        </identifier>
        <name>
          <family value="Greatpatient"/>
          <given value="Joe"/>
        </name>
        <gender value="male"/>
        <birthDate value="1956-08-23">
          <extension url="http://hl7.org.au/fhir/StructureDefinition/date-accuracy-indicator">
            <valueCoding>
              <system value="https://healthterminologies.gov.au/fhir/CodeSystem/date-accuracy-indicator-1"/>
              <code value="AAE"/>
              <display value="Day and month are accurate, year is estimated"/>
            </valueCoding>
          </extension>
          <extension url="http://hl7.org/fhir/StructureDefinition/patient-birthTime">
            <valueDateTime value="1956-08-23T15:07:00+10:00"/>
          </extension>
        </birthDate>
        <generalPractitioner>
          <reference value="urn:uuid:20f15728-f3ac-4877-b55a-107f94dbd00c"/>
        </generalPractitioner>
        <managingOrganization>
          <reference value="urn:uuid:021fff67-c5ec-438f-9520-ce9bafee1306"/>
        </managingOrganization>
      </Patient>
    </resource>
  </entry>
<!--     PractitionerRole     -->
  <entry>
    <fullUrl value="urn:uuid:45cad6ac-e9a3-418a-8480-4e64132849f2"/>
    <resource>
      <PractitionerRole>
        <id value="45cad6ac-e9a3-418a-8480-4e64132849f2"/>
        <text>
          <status value="generated"/><div xmlns="http://www.w3.org/1999/xhtml"><p><b>Generated Narrative with Details</b></p><p><b>id</b>: 45cad6ac-e9a3-418a-8480-4e64132849f2</p><p><b>identifier</b>: Medicare Provider Number = 5544887B, HPI-I = 8003610000000000</p><p><b>practitioner</b>: <a href="urn:uuid:40a94071-8373-4d53-a788-63b79c75a3c1">urn:uuid:40a94071-8373-4d53-a788-63b79c75a3c1</a></p><p><b>organization</b>: <a href="urn:uuid:021fff67-c5ec-438f-9520-ce9bafee1306">urn:uuid:021fff67-c5ec-438f-9520-ce9bafee1306</a></p><p><b>code</b>: GP <span style="background: LightGoldenRodYellow">(Details : {http://www.abs.gov.au/ausstats/abs@.nsf/mf/1220.0 code '253111' = '253111', given as 'General Practitioner'})</span></p></div>
        </text>
        <identifier>
          <type>
            <coding>
              <system value="http://hl7.org.au/fhir/v2/0203"/>
              <code value="UPIN"/>
            </coding>
            <text value="Medicare Provider Number"/>
          </type>
          <system value="http://ns.electronichealth.net.au/id/medicare-provider-number"/>
          <value value="5544887B"/>
        </identifier>
        <identifier>
          <type>
            <coding>
              <system value="http://hl7.org/fhir/v2/0203"/>
              <code value="NPI"/>
              <display value="National provider identifier"/>
            </coding>
            <text value="HPI-I"/>
          </type>
          <system value="http://ns.electronichealth.net.au/id/hi/hpii/1.0"/>
          <value value="8003610000000000"/>
        </identifier>
        <practitioner>
          <reference value="urn:uuid:40a94071-8373-4d53-a788-63b79c75a3c1"/>
        </practitioner>
        <organization>
          <reference value="urn:uuid:021fff67-c5ec-438f-9520-ce9bafee1306"/>
        </organization>
        <code>
          <coding>
            <system value="http://www.abs.gov.au/ausstats/abs@.nsf/mf/1220.0"/>
            <code value="253111"/>
            <display value="General Practitioner"/>
          </coding>
          <text value="GP"/>
        </code>
      </PractitionerRole>
    </resource>
  </entry>
<!--     Practitioner     -->
  <entry>
    <fullUrl value="urn:uuid:40a94071-8373-4d53-a788-63b79c75a3c1"/>
    <resource>
      <Practitioner>
        <id value="40a94071-8373-4d53-a788-63b79c75a3c1"/>
        <text>
          <status value="generated"/><div xmlns="http://www.w3.org/1999/xhtml"><p><b>Generated Narrative with Details</b></p><p><b>id</b>: 40a94071-8373-4d53-a788-63b79c75a3c1</p><p><b>identifier</b>: HPI-I = 8003610000000000</p><p><b>name</b>: Barry Helpman (OFFICIAL)</p><p><b>telecom</b>: bhelpman@example.devonportgp.com.au(WORK)</p><h3>Qualifications</h3><table class="grid"><tr><td>-</td><td><b>Identifier</b></td><td><b>Code</b></td><td><b>Issuer</b></td></tr><tr><td>*</td><td>AHPRA Registration Number = MED0000932850</td><td>AHPRA qualification for General Practitioner <span style="background: LightGoldenRodYellow">(Details : {http://www.abs.gov.au/ausstats/abs@.nsf/mf/1220.0 code '253111' = '253111', given as 'General Medical Practitioner'})</span></td><td>AHPRA</td></tr></table></div>
        </text>
        <identifier>
          <type>
            <coding>
              <system value="http://hl7.org/fhir/v2/0203"/>
              <code value="NPI"/>
              <display value="National provider identifier"/>
            </coding>
            <text value="HPI-I"/>
          </type>
          <system value="http://ns.electronichealth.net.au/id/hi/hpii/1.0"/>
          <value value="8003610000000000"/>
        </identifier>
        <name>
          <use value="official"/>
          <family value="Helpman"/>
          <given value="Barry"/>
          <suffix value="M.D."/>
        </name>
        <telecom>
          <system value="email"/>
          <value value="bhelpman@example.devonportgp.com.au"/>
          <use value="work"/>
        </telecom>
        <qualification>
          <identifier>
            <type>
              <coding>
                <system value="http://hl7.org.au/fhir/v2/0203"/>
                <code value="AHPRA"/>
                <display value="Australian Health Practitioner Regulation Agency Registration Number"/>
              </coding>
              <text value="AHPRA Registration Number"/>
            </type>
            <system value="http://hl7.org.au/id/ahpra-registration-number"/>
            <value value="MED0000932850"/>
          </identifier>
          <code>
            <coding>
              <system value="http://www.abs.gov.au/ausstats/abs@.nsf/mf/1220.0"/>
              <code value="253111"/>
              <display value="General Medical Practitioner"/>
            </coding>
            <text value="AHPRA qualification for General Practitioner"/>
          </code>
          <issuer>
            <display value="AHPRA"/>
          </issuer>
        </qualification>
      </Practitioner>
    </resource>
  </entry>
<!--     Practitioner     -->
  <entry>
    <fullUrl value="urn:uuid:20f15728-f3ac-4877-b55a-107f94dbd00c"/>
    <resource>
      <Practitioner>
        <id value="20f15728-f3ac-4877-b55a-107f94dbd00c"/>
        <text>
          <status value="generated"/><div xmlns="http://www.w3.org/1999/xhtml"><p><b>Generated Narrative with Details</b></p><p><b>id</b>: 20f15728-f3ac-4877-b55a-107f94dbd00c</p><p><b>name</b>: Good Doctor (OFFICIAL)</p></div>
        </text>
        <name>
          <use value="official"/>
          <family value="Doctor"/>
          <given value="Good"/>
          <prefix value="Dr."/>
        </name>
      </Practitioner>
    </resource>
  </entry>
<!--     Organization     -->
  <entry>
    <fullUrl value="urn:uuid:021fff67-c5ec-438f-9520-ce9bafee1306"/>
    <resource>
      <Organization>
        <id value="021fff67-c5ec-438f-9520-ce9bafee1306"/>
        <text>
          <status value="generated"/><div xmlns="http://www.w3.org/1999/xhtml"><p><b>Generated Narrative with Details</b></p><p><b>id</b>: 021fff67-c5ec-438f-9520-ce9bafee1306</p><p><b>identifier</b>: ABN = 51824754455</p><p><b>name</b>: Devonport Family Medicine Clinic</p><p><b>telecom</b>: reception@example.dfmc.com.au(WORK), fax: (03) 8543 5557(WORK), ph: (03) 8543 5556(WORK)</p><p><b>address</b>: LPO Box 235 Strahan TAS 7468 AU </p></div>
        </text>
        <identifier>
          <type>
            <text value="ABN"/>
          </type>
          <system value="http://hl7.org.au/id/abn"/>
          <value value="51824754455"/>
        </identifier>
        <name value="Devonport Family Medicine Clinic"/>
        <telecom>
          <system value="email"/>
          <value value="reception@example.dfmc.com.au"/>
          <use value="work"/>
        </telecom>
        <telecom>
          <system value="fax"/>
          <value value="(03) 8543 5557"/>
          <use value="work"/>
        </telecom>
        <telecom>
          <system value="phone"/>
          <value value="(03) 8543 5556"/>
          <use value="work"/>
        </telecom>
        <address>
          <type value="postal"/>
          <line value="LPO Box 235"/>
          <city value="Strahan"/>
          <state value="TAS"/>
          <postalCode value="7468"/>
          <country value="AU"/>
        </address>
      </Organization>
    </resource>
  </entry>
<!--     MedicationStatement     -->
  <entry>
    <fullUrl value="urn:uuid:2fe9873a-0eea-415a-89ae-0b82ff2b3d0b"/>
    <resource>
      <MedicationStatement>
        <id value="2fe9873a-0eea-415a-89ae-0b82ff2b3d0b"/>
        <text>
          <status value="generated"/><div xmlns="http://www.w3.org/1999/xhtml"><p><b>Generated Narrative with Details</b></p><p><b>id</b>: 2fe9873a-0eea-415a-89ae-0b82ff2b3d0b</p><p><b>status</b>: active</p><p><b>medication</b>: Candesartan 32mg <span style="background: LightGoldenRodYellow">(Details : {SNOMED CT code '22087011000036100' = '22087011000036100', given as 'candesartan cilexetil 32 mg tablet'})</span></p><p><b>subject</b>: <a href="urn:uuid:cc246543-a0da-4ead-9ed6-5e064fea9ff7">urn:uuid:cc246543-a0da-4ead-9ed6-5e064fea9ff7</a></p><p><b>taken</b>: y</p><p><b>dosage</b>: </p></div>
        </text>
        <status value="active"/>
        <medicationCodeableConcept>
          <coding>
            <system value="http://snomed.info/sct"/>
            <code value="22087011000036100"/>
            <display value="candesartan cilexetil 32 mg tablet"/>
          </coding>
          <text value="Candesartan 32mg"/>
        </medicationCodeableConcept>
        <subject>
          <reference value="urn:uuid:cc246543-a0da-4ead-9ed6-5e064fea9ff7"/>
        </subject>
        <taken value="y"/>
        <dosage>
          <text value="1 tablet daily"/>
          <timing>
            <repeat>
              <frequency value="1"/>
              <period value="1"/>
              <periodUnit value="d"/>
            </repeat>
          </timing>
          <doseQuantity>
            <value value="1"/>
            <unit value="tablet"/>
            <system value="http://snomed.info/sct"/>
            <code value="63011000036109"/>
          </doseQuantity>
        </dosage>
      </MedicationStatement>
    </resource>
  </entry>
<!--     Observation     -->
  <entry>
    <fullUrl value="urn:uuid:552bcf1e-5e3e-45b7-9539-0a99ba860146"/>
    <resource>
      <Observation>
        <id value="552bcf1e-5e3e-45b7-9539-0a99ba860146"/>
        <text>
          <status value="generated"/><div xmlns="http://www.w3.org/1999/xhtml"><p><b>Generated Narrative with Details</b></p><p><b>id</b>: 552bcf1e-5e3e-45b7-9539-0a99ba860146</p><p><b>status</b>: final</p><p><b>code</b>: Assertion <span style="background: LightGoldenRodYellow">(Details : {http://hl7.org/fhir/v3/ActCode code 'ASSERTION' = 'Assertion', given as 'Assertion'})</span></p><p><b>subject</b>: <a href="urn:uuid:cc246543-a0da-4ead-9ed6-5e064fea9ff7">urn:uuid:cc246543-a0da-4ead-9ed6-5e064fea9ff7</a></p><p><b>effective</b>: 21 Sep. 2018</p><p><b>value</b>: No relevant medical history <span style="background: LightGoldenRodYellow">(Details : {SNOMED CT code '1224831000168103' = '1224831000168103', given as 'No relevant medical history'})</span></p></div>
        </text>
        <status value="final"/>
        <code>
          <coding>
            <system value="http://hl7.org/fhir/v3/ActCode"/>
            <code value="ASSERTION"/>
            <display value="Assertion"/>
          </coding>
        </code>
        <subject>
          <reference value="urn:uuid:cc246543-a0da-4ead-9ed6-5e064fea9ff7"/>
        </subject>
        <effectiveDateTime value="2018-09-21"/>
        <valueCodeableConcept>
          <coding>
            <system value="http://snomed.info/sct"/>
            <code value="1224831000168103"/>
            <display value="No relevant medical history"/>
          </coding>
        </valueCodeableConcept>
      </Observation>
    </resource>
  </entry>
<!--     Immunization     -->
  <entry>
    <fullUrl value="urn:uuid:3e2a29a1-3a3c-4a53-bb1b-66588e9bd147"/>
    <resource>
      <Immunization>
        <id value="3e2a29a1-3a3c-4a53-bb1b-66588e9bd147"/>
        <text>
          <status value="generated"/><div xmlns="http://www.w3.org/1999/xhtml"><p><b>Generated Narrative with Details</b></p><p><b>id</b>: 3e2a29a1-3a3c-4a53-bb1b-66588e9bd147</p><p><b>status</b>: completed</p><p><b>notGiven</b>: false</p><p><b>vaccineCode</b>: diphtheria 2 units + tetanus 20 units vaccine injection, 0.5 mL syringe <span style="background: LightGoldenRodYellow">(Details : {SNOMED CT code '837281000168100' = '837281000168100', given as 'diphtheria 2 units + tetanus 20 units vaccine injection, 0.5 mL syringe'})</span></p><p><b>patient</b>: <a href="urn:uuid:cc246543-a0da-4ead-9ed6-5e064fea9ff7">urn:uuid:cc246543-a0da-4ead-9ed6-5e064fea9ff7</a></p><p><b>date</b>: 15 Apr. 2017</p><p><b>primarySource</b>: true</p></div>
        </text>
        <status value="completed"/>
        <notGiven value="false"/>
        <vaccineCode>
          <coding>
            <system value="http://snomed.info/sct"/>
            <code value="837281000168100"/>
            <display value="diphtheria 2 units + tetanus 20 units vaccine injection, 0.5 mL syringe"/>
          </coding>
        </vaccineCode>
        <patient>
          <reference value="urn:uuid:cc246543-a0da-4ead-9ed6-5e064fea9ff7"/>
        </patient>
        <date value="2017-04-15"/>
        <primarySource value="true"/>
      </Immunization>
    </resource>
  </entry>
</Bundle>