<?xml version="1.0" encoding="UTF-8"?>

<Bundle xmlns="http://hl7.org/fhir">
  <id value="gg0gh111a-cc0f-4c3d-a4cd-a35ceafff555"/>
  <meta>
    <lastUpdated value="2018-09-21T09:01:00+10:00"/>
  </meta>
  <identifier>
    <system value="http://example.org"/>
    <value value="Document-gg0gh111a-cc0f-4c3d-a4cd-a35ceafff555"/>
  </identifier>
  <type value="document"/>
<!--     The Composition resource     -->
  <entry>
    <fullUrl value="http://example.org/Composition/ff0gh111a-cc0f-4c3d-a4cd-a35ceafff999"/>
    <resource>
      <Composition>
        <id value="ff0gh111a-cc0f-4c3d-a4cd-a35ceafff999"/>
        <meta>
          <profile value="http://ns.electronichealth.net.au/ci/fhir/3.0/StructureDefinition/composition-shs-1"/>
        </meta>
        <language value="en-AU"/>
        <text>
          <status value="extensions"/><div xmlns="http://www.w3.org/1999/xhtml" lang="en-AU">
                        <p>
                            <b>Composition</b>
                        </p>
                        <p><b>status</b>: final</p>
                        <p><b>type</b>: Patient summary Document</p>
                        <p><b>date</b>: 21/09/2018 9:00:00 AM</p>
                        <p><b>author</b>: HPI-I = 8003610000000000; Barry Helpman; bhelpman@example.devonportgp.com.au (WORK)</p>
                        <p><b>author role</b>: Medicare Provider Number: 5544887B, HPI-I = 8003610000000000; Barry Helpman; Devonport Family Medicine
                            Clinic; General Practitioner</p>
                        <p><b>title</b>: Shared Health Summary</p>
                        <p><b>attester</b>: Mode: legal; Time: 21/09/2018 9:00:00 AM; Party: HPI-I = 8003610000000000; Barry Helpman</p>
                        <p><b>custodian</b>: ABN = 51824754455; Devonport Family Medicine Clinic; reception@example.dfmc.com.au(WORK), fax: (03) 8543
                            5557(WORK), ph: (03) 8543 5556(WORK)</p>
                    </div>
        </text>
        <extension url="http://hl7.org.au/fhir/StructureDefinition/composition-author-role">
          <valueReference>
            <reference value="PractitionerRole/45cad6ac-e9a3-418a-8480-4e64132849f2"/>
          </valueReference>
        </extension>
        <status value="final"/>
        <type>
          <coding>
            <system value="http://loinc.org"/>
            <code value="60591-5"/>
            <display value="Patient summary Document"/>
          </coding>
        </type>
        <subject>
          <reference value="Patient/cc246543-a0da-4ead-9ed6-5e064fea9ff7"/>
        </subject>
        <date value="2018-09-21T09:00:00+10:00"/>
        <author>
          <reference value="Practitioner/40a94071-8373-4d53-a788-63b79c75a3c1"/>
        </author>
        <title value="Shared Health Summary"/>
        <attester>
          <mode value="legal"/>
          <time value="2018-09-21T09:00:00+10:00"/>
          <party>
            <reference value="Practitioner/40a94071-8373-4d53-a788-63b79c75a3c1"/>
          </party>
        </attester>
        <custodian>
          <reference value="Organization/021fff67-c5ec-438f-9520-ce9bafee1306"/>
        </custodian>
        <section>
          <title value="Current Medications"/>
          <code>
            <coding>
              <system value="https://healthterminologies.gov.au/fhir/CodeSystem/nctis-data-components-1"/>
              <code value="101.32009"/>
              <display value="Current Medicine"/>
            </coding>
          </code>
          <text>
            <status value="additional"/><div xmlns="http://www.w3.org/1999/xhtml" lang="en-AU">
                            <table border="5">
                                <caption>Medications</caption>
                                <thead>
                                    <tr>
                                        <th>Medication</th>
                                        <th>Dose</th>
                                        <th>Purpose/Comment</th>
                                    </tr>
                                </thead>
                                <tbody>
                                    <tr>
                                        <td>Candesartan 32mg</td>
                                        <td>1 d</td>
                                        <td/>
                                    </tr>
                                    <tr>
                                        <td>Metformin 500mg</td>
                                        <td>1 bd</td>
                                        <td/>
                                    </tr>
                                    <tr>
                                        <td>Candesartan 8mg</td>
                                        <td>0.5 d</td>
                                        <td/>
                                    </tr>
                                </tbody>
                            </table>
                        </div>
          </text>
          <entry>
            <reference value="MedicationStatement/yh783f71-7736-4d10-89f7-fa1845e53987"/>
          </entry>
        </section>
        <section>
          <title value="Allergies and Adverse Reactions"/>
          <code>
            <coding>
              <system value="http://loinc.org"/>
              <code value="48765-2"/>
              <display value="Allergies and adverse reactions Document"/>
            </coding>
          </code>
          <text>
            <status value="additional"/><div xmlns="http://www.w3.org/1999/xhtml" lang="en-AU">
                            <p>No available information.</p>
                        </div>
          </text>
          <emptyReason>
            <coding>
              <system value="http://hl7.org/fhir/list-empty-reason"/>
              <code value="unavailable"/>
              <display value="Unavailable"/>
            </coding>
          </emptyReason>
        </section>
        <section>
          <title value="Medical History"/>
          <code>
            <coding>
              <system value="https://healthterminologies.gov.au/fhir/CodeSystem/nctis-data-components-1"/>
              <code value="101.16117"/>
              <display value="Medical History"/>
            </coding>
          </code>
          <text>
            <status value="additional"/><div xmlns="http://www.w3.org/1999/xhtml" lang="en-AU">
                            <p>No relevant medical history.</p>
                        </div>
          </text>
          <entry>
            <reference value="Observation/ty65cc78-60b0-41cb-83d4-32521d3b9fa2"/>
          </entry>
        </section>
        <section>
          <title value="Immunisations"/>
          <code>
            <coding>
              <system value="http://loinc.org"/>
              <code value="11369-6"/>
              <display value="History of Immunization Narrative"/>
            </coding>
          </code>
          <text>
            <status value="additional"/><div xmlns="http://www.w3.org/1999/xhtml" lang="en-AU">2017-04-15: diphtheria + tetanus</div>
          </text>
          <entry>
            <reference value="Immunization/hgi72daf-b5a6-4a05-9166-a4b7c23f08a1"/>
          </entry>
        </section>
      </Composition>
    </resource>
  </entry>
<!--     The Patient who is the subject of the document     -->
  <entry>
    <fullUrl value="http://example.org/Patient/cc246543-a0da-4ead-9ed6-5e064fea9ff7"/>
    <resource>
      <Patient>
        <id value="cc246543-a0da-4ead-9ed6-5e064fea9ff7"/>
        <meta>
          <profile value="http://ns.electronichealth.net.au/ci/fhir/3.0/StructureDefinition/patient-ident-1"/>
          <profile value="http://ns.electronichealth.net.au/ci/fhir/3.0/StructureDefinition/patient-ihi-1"/>
        </meta>
        <text>
          <status value="extensions"/><div xmlns="http://www.w3.org/1999/xhtml">
                        <p><b>Patient</b></p>
                        <p><b>identifier</b>: National unique individual identifier = 8003608666701594</p>
                        <p><b>name</b>: Joe Greatpatient </p>
                        <p><b>gender</b>: male</p>
                        <p><b>birthDate</b>: 23/08/1956</p>
                        <p><b>generalPractitioner</b>: Good Doctor</p>
                        <p><b>managingOrganization</b>: ABN = 51824754455; name: Devonport Family Medicine Clinic;
                            reception@example.dfmc.com.au(WORK), fax: (03) 8543 5557(WORK), ph: (03) 8543 5556(WORK)</p>
                        <p><b>indigenous status</b>: Not stated/inadequately described</p>
                    </div>
        </text>
        <extension url="http://hl7.org.au/fhir/StructureDefinition/indigenous-status">
          <valueCoding>
            <system value="https://healthterminologies.gov.au/fhir/CodeSystem/australian-indigenous-status-1"/>
            <code value="9"/>
            <display value="Not stated/inadequately described"/>
          </valueCoding>
        </extension>
        <identifier>
          <type>
            <coding>
              <system value="http://hl7.org/fhir/v2/0203"/>
              <code value="NI"/>
              <display value="National unique individual identifier"/>
            </coding>
          </type>
          <system value="http://ns.electronichealth.net.au/id/hi/ihi/1.0"/>
          <value value="8003608666701594"/>
        </identifier>
        <name>
          <family value="Greatpatient"/>
          <given value="Joe"/>
        </name>
        <gender value="male"/>
        <birthDate value="1956-08-23">
          <extension url="http://hl7.org.au/fhir/StructureDefinition/date-accuracy-indicator">
            <valueCoding>
              <system value="https://healthterminologies.gov.au/fhir/CodeSystem/date-accuracy-indicator-1"/>
              <code value="AAE"/>
              <display value="Day and month are accurate, year is estimated"/>
            </valueCoding>
          </extension>
          <extension url="http://hl7.org/fhir/StructureDefinition/patient-birthTime">
            <valueDateTime value="1956-08-23T15:07:00+10:00"/>
          </extension>
        </birthDate>
        <generalPractitioner>
          <reference value="Practitioner/20f15728-f3ac-4877-b55a-107f94dbd00c"/>
        </generalPractitioner>
        <managingOrganization>
          <reference value="Organization/021fff67-c5ec-438f-9520-ce9bafee1306"/>
        </managingOrganization>
      </Patient>
    </resource>
  </entry>
<!--     The Practitioner who is the author and attester of the document     -->
  <entry>
    <fullUrl value="http://example.org/Practitioner/40a94071-8373-4d53-a788-63b79c75a3c1"/>
    <resource>
      <Practitioner>
        <id value="40a94071-8373-4d53-a788-63b79c75a3c1"/>
        <meta>
          <profile value="http://ns.electronichealth.net.au/ci/fhir/3.0/StructureDefinition/practitioner-dh-base-1"/>
          <profile value="http://ns.electronichealth.net.au/ci/fhir/3.0/StructureDefinition/practitioner-ident-1"/>
        </meta>
        <text>
          <status value="generated"/><div xmlns="http://www.w3.org/1999/xhtml"><p><b>Generated Narrative with Details</b></p><p><b>id</b>: 40a94071-8373-4d53-a788-63b79c75a3c1</p><p><b>meta</b>: </p><p><b>identifier</b>: HPI-I = 8003610000000000</p><p><b>name</b>: Barry Helpman (OFFICIAL)</p><p><b>telecom</b>: bhelpman@example.devonportgp.com.au(WORK)</p><h3>Qualifications</h3><table class="grid"><tr><td>-</td><td><b>Identifier</b></td><td><b>Code</b></td><td><b>Issuer</b></td></tr><tr><td>*</td><td>AHPRA registration number = MED0000932850</td><td>AHPRA qualification for General Practitioner <span style="background: LightGoldenRodYellow">(Details : {http://www.abs.gov.au/ausstats/abs@.nsf/mf/1220.0 code '253111' = '253111', given as 'General Medical Practitioner'})</span></td><td>AHPRA</td></tr></table></div>
        </text>
        <identifier>
          <type>
            <coding>
              <system value="http://hl7.org/fhir/v2/0203"/>
              <code value="NPI"/>
              <display value="National provider identifier"/>
            </coding>
            <text value="HPI-I"/>
          </type>
          <system value="http://ns.electronichealth.net.au/id/hi/hpii/1.0"/>
          <value value="8003610000000000"/>
        </identifier>
        <name>
          <use value="official"/>
          <family value="Helpman"/>
          <given value="Barry"/>
          <suffix value="M.D."/>
        </name>
        <telecom>
          <system value="email"/>
          <value value="bhelpman@example.devonportgp.com.au"/>
          <use value="work"/>
        </telecom>
        <qualification>
          <identifier>
            <type>
              <coding>
                <system value="http://hl7.org.au/fhir/v2/0203"/>
                <code value="AHPRA"/>
                <display value="Australian Health Practitioner Regulation Agency Registration Number"/>
              </coding>
              <text value="AHPRA registration number"/>
            </type>
            <system value="http://hl7.org.au/id/ahpra-registration-number"/>
            <value value="MED0000932850"/>
          </identifier>
          <code>
            <coding>
              <system value="http://www.abs.gov.au/ausstats/abs@.nsf/mf/1220.0"/>
              <code value="253111"/>
              <display value="General Medical Practitioner"/>
            </coding>
            <text value="AHPRA qualification for General Practitioner"/>
          </code>
          <issuer>
            <display value="AHPRA"/>
          </issuer>
        </qualification>
      </Practitioner>
    </resource>
  </entry>
<!--     The Organisation that is the custodian of the document     -->
  <entry>
    <fullUrl value="http://example.org/Organization/021fff67-c5ec-438f-9520-ce9bafee1306"/>
    <resource>
      <Organization>
        <id value="021fff67-c5ec-438f-9520-ce9bafee1306"/>
        <meta>
          <profile value="http://ns.electronichealth.net.au/ci/fhir/3.0/StructureDefinition/organization-ident-1"/>
        </meta>
        <text>
          <status value="generated"/><div xmlns="http://www.w3.org/1999/xhtml"><p><b>Generated Narrative with Details</b></p><p><b>id</b>: 021fff67-c5ec-438f-9520-ce9bafee1306</p><p><b>meta</b>: </p><p><b>identifier</b>: ABN = 51824754455</p><p><b>name</b>: Devonport Family Medicine Clinic</p><p><b>telecom</b>: reception@example.dfmc.com.au(WORK), fax: (03) 8543 5557(WORK), ph: (03) 8543 5556(WORK)</p><p><b>address</b>: LPO Box 235 Strahan TAS 7468 AU </p></div>
        </text>
        <identifier>
          <type>
            <text value="ABN"/>
          </type>
          <system value="http://hl7.org.au/id/abn"/>
          <value value="51824754455"/>
        </identifier>
        <name value="Devonport Family Medicine Clinic"/>
        <telecom>
          <system value="email"/>
          <value value="reception@example.dfmc.com.au"/>
          <use value="work"/>
        </telecom>
        <telecom>
          <system value="fax"/>
          <value value="(03) 8543 5557"/>
          <use value="work"/>
        </telecom>
        <telecom>
          <system value="phone"/>
          <value value="(03) 8543 5556"/>
          <use value="work"/>
        </telecom>
        <address>
          <type value="postal"/>
          <line value="LPO Box 235"/>
          <city value="Strahan"/>
          <state value="TAS"/>
          <postalCode value="7468"/>
          <country value="AU"/>
        </address>
      </Organization>
    </resource>
  </entry>
<!--     A MedicationStatement     -->
  <entry>
    <fullUrl value="http://example.org/MedicationStatement/yh783f71-7736-4d10-89f7-fa1845e53987"/>
    <resource>
      <MedicationStatement>
        <id value="yh783f71-7736-4d10-89f7-fa1845e53987"/>
        <meta>
          <profile value="http://ns.electronichealth.net.au/ci/fhir/3.0/StructureDefinition/medicationstatement-summary-1"/>
        </meta>
        <text>
          <status value="generated"/><div xmlns="http://www.w3.org/1999/xhtml"><p><b>Generated Narrative with Details</b></p><p><b>id</b>: yh783f71-7736-4d10-89f7-fa1845e53987</p><p><b>meta</b>: </p><p><b>status</b>: active</p><p><b>medication</b>: Candesartan 32mg <span style="background: LightGoldenRodYellow">(Details : {SNOMED CT code '22087011000036100' = '22087011000036100', given as 'candesartan cilexetil 32 mg tablet'})</span></p><p><b>subject</b>: <a href="Patient-cc246543-a0da-4ead-9ed6-5e064fea9ff7.html">Generated Summary: id: cc246543-a0da-4ead-9ed6-5e064fea9ff7; National unique individual identifier = 8003608666701594; Joe Greatpatient ; gender: male; birthDate: 23/08/1956</a></p><p><b>taken</b>: y</p><p><b>dosage</b>: </p></div>
        </text>
        <status value="active"/>
        <medicationCodeableConcept>
          <coding>
            <system value="http://snomed.info/sct"/>
            <code value="22087011000036100"/>
            <display value="candesartan cilexetil 32 mg tablet"/>
          </coding>
          <text value="Candesartan 32mg"/>
        </medicationCodeableConcept>
        <subject>
          <reference value="Patient/cc246543-a0da-4ead-9ed6-5e064fea9ff7"/>
        </subject>
        <taken value="y"/>
        <dosage>
          <text value="1 d"/>
          <timing>
            <repeat>
              <frequency value="1"/>
              <period value="1"/>
              <periodUnit value="d"/>
            </repeat>
          </timing>
          <doseQuantity>
            <value value="1"/>
            <unit value="&#xFEFF;tablet"/>
            <system value="http://snomed.info/sct"/>
            <code value="63011000036109"/>
          </doseQuantity>
        </dosage>
      </MedicationStatement>
    </resource>
  </entry>
<!--     An Observation     -->
  <entry>
    <fullUrl value="http://example.org/Observation/ty65cc78-60b0-41cb-83d4-32521d3b9fa2"/>
    <resource>
      <Observation>
        <id value="ty65cc78-60b0-41cb-83d4-32521d3b9fa2"/>
        <meta>
          <profile value="http://ns.electronichealth.net.au/ci/fhir/3.0/StructureDefinition/observation-norelevantfinding-1"/>
        </meta>
        <text>
          <status value="generated"/><div xmlns="http://www.w3.org/1999/xhtml">
                        <p><b>Observation</b></p>
                        <p><b>subject</b>: <a href="Patient-cc246543-a0da-4ead-9ed6-5e064fea9ff7.html">id: National unique individual identifier =
                                8003608666701594; Joe Greatpatient ; gender: male; birthDate: 23/08/1956</a></p>
                        <p><b>status</b>: final</p>
                        <p><b>code</b>: Assertion</p>
                        <p><b>value</b>: No relevant medical history</p>
                        <p><b>effective</b>: 21/09/2018</p>
                    </div>
        </text>
        <status value="final"/>
        <code>
          <coding>
            <system value="http://hl7.org/fhir/v3/ActCode"/>
            <code value="ASSERTION"/>
            <display value="Assertion"/>
          </coding>
        </code>
        <subject>
          <reference value="Patient/cc246543-a0da-4ead-9ed6-5e064fea9ff7"/>
        </subject>
        <effectiveDateTime value="2018-09-21"/>
        <valueCodeableConcept>
          <coding>
            <system value="http://snomed.info/sct"/>
            <code value="1224831000168103"/>
            <display value="No relevant medical history"/>
          </coding>
        </valueCodeableConcept>
      </Observation>
    </resource>
  </entry>
<!--     An Immunization     -->
  <entry>
    <fullUrl value="http://example.org/Immunization/hgi72daf-b5a6-4a05-9166-a4b7c23f08a1"/>
    <resource>
      <Immunization>
        <id value="hgi72daf-b5a6-4a05-9166-a4b7c23f08a1"/>
        <meta>
          <profile value="http://ns.electronichealth.net.au/ci/fhir/3.0/StructureDefinition/immunization-summary-administration-1"/>
        </meta>
        <text>
          <status value="extensions"/><div xmlns="http://www.w3.org/1999/xhtml">
                        <p><b>Immunization statement</b></p>
                        <p><b>patient</b>: <a href="Patient-cc246543-a0da-4ead-9ed6-5e064fea9ff7.html">id: National unique individual identifier =
                                8003608666701594; Joe Greatpatient ; gender: male; birthDate: 23/08/1956</a></p>
                        <p><b>status</b>: completed</p>
                        <p><b>notGiven</b>: false</p>
                        <p><b>vaccineCode</b>: diphtheria 2 units + tetanus 20 units vaccine injection, 0.5 mL syringe</p>
                        <p><b>date</b>: 15/04/2017</p>
                        <p><b>primarySource</b>: true</p>
                    </div>
        </text>
        <status value="completed"/>
        <notGiven value="false"/>
        <vaccineCode>
          <coding>
            <system value="http://snomed.info/sct"/>
            <code value="837281000168100"/>
            <display value="diphtheria 2 units + tetanus 20 units vaccine injection, 0.5 mL syringe"/>
          </coding>
        </vaccineCode>
        <patient>
          <reference value="Patient/cc246543-a0da-4ead-9ed6-5e064fea9ff7"/>
        </patient>
        <date value="2017-04-15"/>
        <primarySource value="true"/>
      </Immunization>
    </resource>
  </entry>
</Bundle>