{
  "resourceType": "Composition",
  "id": "c53c6c39-3e1a-4038-9ad5-25be8c54481f",
  "meta": {
    "profile": [
      "http://ns.electronichealth.net.au/ci/fhir/3.0/StructureDefinition/composition-shs-1"
    ]
  },
  "language": "en-AU",
  "text": {
    "status": "additional",
    "div": "<div xmlns=\"http://www.w3.org/1999/xhtml\" lang=\"en-AU\">\n      <p><b> id</b> : c53c6c39-3e1a-4038-9ad5-25be8c54481f</p>\n      <p><b>language</b>: en-AU</p>\n      <p><b>status</b> : Final</p>\n      <p><b>type</b>: Shared Health Summary <span style=\"background: LightGoldenRodYellow\">(Details : {LOINC code '60591-5' = 'Patient summary Document', given as 'Patient Summary'})</span></p>\n      <p><b> date</b> : 21/06/2017 09:00:15+10:00</p>\n      <p><b>consumer</b>: HPI-I = 8003608833357361; name = Adam A. Everyman</p>\n      <p><b>author</b>: HPI-I = 8003619900015717; name = Dr Peter Chalmers</p>\n      <p><b>attester</b>: HPI-I = 8003619900015717; name = Dr Peter Chalmers</p>\n      <p><b>title</b> : Shared Health Summary</p>\n      <p><b>custodian</b>: ABN = 51824754455; name = Devonport Family Medicine Clinic</p>\n    </div>"
  },
  "contained": [
    {
      "resourceType": "Patient",
      "id": "d9698a55-723a-49de-931b-4e61d732b016",
      "meta": {
        "profile": [
          "http://ns.electronichealth.net.au/ci/fhir/3.0/StructureDefinition/patient-ident-1",
          "http://ns.electronichealth.net.au/ci/fhir/3.0/StructureDefinition/patient-ihi-1"
        ]
      },
      "identifier": [
        {
          "type": {
            "coding": [
              {
                "system": "http://hl7.org/fhir/v2/0203",
                "code": "NI",
                "display": "National unique individual identifier"
              }
            ]
          },
          "system": "http://ns.electronichealth.net.au/id/hi/ihi/1.0",
          "value": "8003608833357361"
        }
      ],
      "name": [
        {
          "use": "official",
          "text": "Adam A. Everyman",
          "family": "Everyman",
          "given": [
            "Adam",
            "A."
          ]
        },
        {
          "use": "usual",
          "given": [
            "Damo"
          ]
        }
      ],
      "gender": "male",
      "generalPractitioner": [
        {
          "reference": "#b44c4b41-16ae-46b1-b7b4-f4dd2bcd3654"
        }
      ],
      "managingOrganization": {
        "reference": "#9df89ebf-b9ab-4ed5-b865-90892c1bbb1a"
      }
    },
    {
      "resourceType": "Practitioner",
      "id": "b44c4b41-16ae-46b1-b7b4-f4dd2bcd3654",
      "meta": {
        "profile": [
          "http://ns.electronichealth.net.au/ci/fhir/3.0/StructureDefinition/practitioner-dh-base-1",
          "http://ns.electronichealth.net.au/ci/fhir/3.0/StructureDefinition/practitioner-ident-1"
        ]
      },
      "identifier": [
        {
          "type": {
            "coding": [
              {
                "system": "http://hl7.org/fhir/v2/0203",
                "code": "NPI",
                "display": "National provider identifier"
              }
            ],
            "text": "HPI-I"
          },
          "system": "http://ns.electronichealth.net.au/id/hi/hpii/1.0",
          "value": "8003619900015717"
        }
      ],
      "name": [
        {
          "use": "official",
          "family": "Chalmers",
          "given": [
            "Peter"
          ],
          "prefix": [
            "Dr."
          ]
        }
      ],
      "qualification": [
        {
          "identifier": [
            {
              "type": {
                "coding": [
                  {
                    "system": "http://hl7.org.au/fhir/v2/0203",
                    "code": "AHPRA",
                    "display": "Australian Health Practitioner Regulation Agency Registration Number"
                  }
                ],
                "text": "AHPRA Registration Number"
              },
              "system": "http://hl7.org.au/id/ahpra-registration-number",
              "value": "MED0000932850"
            }
          ],
          "code": {
            "coding": [
              {
                "system": "http://www.abs.gov.au/ausstats/abs@.nsf/mf/1220.0",
                "code": "253111",
                "display": "General Medical Practitioner"
              }
            ],
            "text": "AHPRA qualification for General Practitioner"
          },
          "issuer": {
            "display": "AHPRA"
          }
        }
      ]
    },
    {
      "resourceType": "PractitionerRole",
      "id": "08da397e-01af-4236-a458-70b05d7e8df8",
      "meta": {
        "profile": [
          "http://ns.electronichealth.net.au/ci/fhir/3.0/StructureDefinition/practitionerrole-withpractitionerident-1"
        ]
      },
      "identifier": [
        {
          "type": {
            "coding": [
              {
                "system": "http://hl7.org.au/fhir/v2/0203",
                "code": "UPIN"
              }
            ],
            "text": "Medicare Provider Number"
          },
          "system": "http://ns.electronichealth.net.au/id/medicare-provider-number",
          "value": "5544887B"
        },
        {
          "type": {
            "coding": [
              {
                "system": "http://hl7.org/fhir/v2/0203",
                "code": "NPI",
                "display": "National provider identifier"
              }
            ],
            "text": "HPI-I"
          },
          "system": "http://ns.electronichealth.net.au/id/hi/hpii/1.0",
          "value": "8003619900015717"
        }
      ],
      "practitioner": {
        "reference": "#b44c4b41-16ae-46b1-b7b4-f4dd2bcd3654"
      },
      "organization": {
        "reference": "#9df89ebf-b9ab-4ed5-b865-90892c1bbb1a"
      },
      "code": [
        {
          "coding": [
            {
              "system": "http://www.abs.gov.au/ausstats/abs@.nsf/mf/1220.0",
              "code": "253111",
              "display": "General Practitioner"
            }
          ],
          "text": "GP"
        }
      ],
      "telecom": [
        {
          "system": "email",
          "value": "pchalmers@example.albiongp.com.au",
          "use": "work"
        }
      ]
    },
    {
      "resourceType": "Organization",
      "id": "9df89ebf-b9ab-4ed5-b865-90892c1bbb1a",
      "meta": {
        "profile": [
          "http://ns.electronichealth.net.au/ci/fhir/3.0/StructureDefinition/organization-ident-1",
          "http://ns.electronichealth.net.au/ci/fhir/3.0/StructureDefinition/organization-dh-base-1"
        ]
      },
      "identifier": [
        {
          "type": {
            "text": "ABN"
          },
          "system": "http://hl7.org.au/id/abn",
          "value": "51824754455"
        }
      ],
      "name": "Devonport Family Medicine Clinic",
      "telecom": [
        {
          "system": "email",
          "value": "reception@example.dfmc.com.au",
          "use": "work"
        },
        {
          "system": "fax",
          "value": "(03) 8543 5557",
          "use": "work"
        },
        {
          "system": "phone",
          "value": "(03) 8543 5556",
          "use": "work"
        }
      ],
      "address": [
        {
          "type": "postal",
          "line": [
            "LPO Box 235"
          ],
          "city": "Strahan",
          "state": "TAS",
          "postalCode": "7468",
          "country": "AU"
        }
      ]
    },
    {
      "resourceType": "AllergyIntolerance",
      "id": "1509ea06-0856-43ed-8842-cc7e6f48c460",
      "meta": {
        "profile": [
          "http://ns.electronichealth.net.au/ci/fhir/3.0/StructureDefinition/allergyintollerance-summary-1"
        ]
      },
      "clinicalStatus": "active",
      "verificationStatus": "unconfirmed",
      "code": {
        "coding": [
          {
            "system": "http://snomed.info/sct",
            "code": "409137002",
            "display": "No known drug allergy"
          }
        ],
        "text": "No known medication allergies"
      },
      "patient": {
        "reference": "#d9698a55-723a-49de-931b-4e61d732b016"
      }
    },
    {
      "resourceType": "MedicationStatement",
      "id": "21fcbd65-b116-4528-b396-5c834435bf68",
      "meta": {
        "profile": [
          "http://ns.electronichealth.net.au/ci/fhir/3.0/StructureDefinition/medicationstatement-summary-1"
        ]
      },
      "status": "active",
      "medicationCodeableConcept": {
        "text": "Ferrous sulphate & vitamin C"
      },
      "subject": {
        "reference": "#d9698a55-723a-49de-931b-4e61d732b016"
      },
      "taken": "y",
      "dosage": [
        {
          "text": "1 d"
        }
      ]
    },
    {
      "resourceType": "MedicationStatement",
      "id": "d30f3bd7-7106-4530-8b10-e9b5c43c2ec8",
      "meta": {
        "profile": [
          "http://ns.electronichealth.net.au/ci/fhir/3.0/StructureDefinition/medicationstatement-summary-1"
        ]
      },
      "status": "active",
      "medicationCodeableConcept": {
        "text": "Fluticasone/salmeterol 250/25"
      },
      "subject": {
        "reference": "#d9698a55-723a-49de-931b-4e61d732b016"
      },
      "taken": "y",
      "dosage": [
        {
          "text": "2 bd"
        }
      ]
    },
    {
      "resourceType": "MedicationStatement",
      "id": "480ddf2a-885c-4a44-837a-25503b6ea740",
      "meta": {
        "profile": [
          "http://ns.electronichealth.net.au/ci/fhir/3.0/StructureDefinition/medicationstatement-summary-1"
        ]
      },
      "status": "active",
      "medicationCodeableConcept": {
        "text": "Sodium chloride 600mg"
      },
      "subject": {
        "reference": "#d9698a55-723a-49de-931b-4e61d732b016"
      },
      "taken": "y",
      "dosage": [
        {
          "text": "3m, 3 midi, 2n"
        }
      ]
    },
    {
      "resourceType": "MedicationStatement",
      "id": "c4292c20-8037-487d-9d8b-b834b59bfb17",
      "meta": {
        "profile": [
          "http://ns.electronichealth.net.au/ci/fhir/3.0/StructureDefinition/medicationstatement-summary-1"
        ]
      },
      "status": "active",
      "medicationCodeableConcept": {
        "text": "Mega B complex"
      },
      "subject": {
        "reference": "#d9698a55-723a-49de-931b-4e61d732b016"
      },
      "taken": "y",
      "dosage": [
        {
          "text": "1 d"
        }
      ]
    },
    {
      "resourceType": "MedicationStatement",
      "id": "a7f22a69-608c-49e2-911b-53b609b2be0a",
      "meta": {
        "profile": [
          "http://ns.electronichealth.net.au/ci/fhir/3.0/StructureDefinition/medicationstatement-summary-1"
        ]
      },
      "status": "active",
      "medicationCodeableConcept": {
        "text": "Multivitamin"
      },
      "subject": {
        "reference": "#d9698a55-723a-49de-931b-4e61d732b016"
      },
      "taken": "y",
      "dosage": [
        {
          "text": "1 d"
        }
      ]
    },
    {
      "resourceType": "MedicationStatement",
      "id": "bc8a3682-1060-4be9-a4a2-7210c71d5c11",
      "meta": {
        "profile": [
          "http://ns.electronichealth.net.au/ci/fhir/3.0/StructureDefinition/medicationstatement-summary-1"
        ]
      },
      "status": "active",
      "medicationCodeableConcept": {
        "text": "Bromhexine 0.8 mg/ml"
      },
      "subject": {
        "reference": "#d9698a55-723a-49de-931b-4e61d732b016"
      },
      "taken": "y",
      "dosage": [
        {
          "text": "10 ml bd"
        }
      ]
    },
    {
      "resourceType": "Immunization",
      "id": "42bdb0e9-d510-46c4-a4a3-02205dbb1447",
      "meta": {
        "profile": [
          "http://ns.electronichealth.net.au/ci/fhir/3.0/StructureDefinition/immunization-summary-administration-1"
        ]
      },
      "status": "completed",
      "notGiven": false,
      "vaccineCode": {
        "coding": [
          {
            "system": "http://snomed.info/sct",
            "code": "33491000168108",
            "display": "Engerix-B Adult"
          }
        ]
      },
      "patient": {
        "reference": "#d9698a55-723a-49de-931b-4e61d732b016"
      },
      "date": "2017-10-09",
      "primarySource": true
    },
    {
      "resourceType": "Immunization",
      "id": "21e09e32-441a-4297-a803-970358b4f20f",
      "meta": {
        "profile": [
          "http://ns.electronichealth.net.au/ci/fhir/3.0/StructureDefinition/immunization-summary-administration-1"
        ]
      },
      "status": "completed",
      "notGiven": false,
      "vaccineCode": {
        "coding": [
          {
            "system": "http://snomed.info/sct",
            "code": "709541000168107",
            "display": "Fluvax 2015"
          }
        ]
      },
      "patient": {
        "reference": "#d9698a55-723a-49de-931b-4e61d732b016"
      },
      "date": "2015-10-03",
      "primarySource": true
    }
  ],
  "extension": [
    {
      "url": "http://hl7.org.au/fhir/StructureDefinition/composition-author-role",
      "valueReference": {
        "reference": "#08da397e-01af-4236-a458-70b05d7e8df8"
      }
    }
  ],
  "status": "final",
  "type": {
    "coding": [
      {
        "system": "http://loinc.org",
        "code": "60591-5",
        "display": "Patient Summary"
      }
    ]
  },
  "subject": {
    "reference": "#d9698a55-723a-49de-931b-4e61d732b016"
  },
  "date": "2017-06-21T09:00:15+10:00",
  "author": [
    {
      "reference": "#b44c4b41-16ae-46b1-b7b4-f4dd2bcd3654"
    }
  ],
  "title": "Shared Health Summary",
  "attester": [
    {
      "mode": [
        "legal"
      ],
      "time": "2017-06-21T09:00:15+10:00",
      "party": {
        "reference": "#b44c4b41-16ae-46b1-b7b4-f4dd2bcd3654"
      }
    }
  ],
  "custodian": {
    "reference": "#9df89ebf-b9ab-4ed5-b865-90892c1bbb1a"
  },
  "section": [
    {
      "title": "Current Medications",
      "code": {
        "coding": [
          {
            "system": "https://healthterminologies.gov.au/fhir/CodeSystem/nctis-data-components-1",
            "code": "101.32009",
            "display": "Current Medicine"
          }
        ]
      },
      "text": {
        "status": "additional",
        "div": "<div xmlns=\"http://www.w3.org/1999/xhtml\">\n        <table border=\"5\">\n          <thead>\n            <tr>\n              <th>Medication</th>\n              <th>Dose</th>\n              <th>Purpose/Comment</th>\n            </tr>\n          </thead>\n          <tbody>\n            <tr>\n              <td><i>Ferrous sulphate &amp; vitamin C</i></td>\n              <td><i>1 d</i></td>\n              <td/>\n            </tr>\n            <tr>\n              <td>Fluticasone/salmeterol 250/25</td>\n              <td>2 bd</td>\n              <td/>\n            </tr>\n            <tr>\n              <td>Sodium chloride 600mg</td>\n              <td>3 m, 3 midi, 2 n</td>\n              <td/>\n            </tr>                        \n            <tr>\n              <td>\n                <b>Mega B complex</b>\n              </td>\n              <td>\n                <b>1 d</b>\n              </td>\n              <td/>\n            </tr>\n            <tr>\n              <td>\n                <b>Multivitamin</b>\n              </td>\n              <td>\n                <b>1 d</b>\n              </td>\n              <td/>\n            </tr>            \n            <tr>\n              <td>Bromhexine 0.8mg/ml \n              </td>\n              <td>\n                <b>10ml bd</b>\n              </td>\n              <td/>\n            </tr>\n          </tbody>\n        </table></div>"
      },
      "entry": [
        {
          "reference": "#21fcbd65-b116-4528-b396-5c834435bf68"
        },
        {
          "reference": "#d30f3bd7-7106-4530-8b10-e9b5c43c2ec8"
        },
        {
          "reference": "#480ddf2a-885c-4a44-837a-25503b6ea740"
        },
        {
          "reference": "#c4292c20-8037-487d-9d8b-b834b59bfb17"
        },
        {
          "reference": "#a7f22a69-608c-49e2-911b-53b609b2be0a"
        },
        {
          "reference": "#bc8a3682-1060-4be9-a4a2-7210c71d5c11"
        }
      ]
    },
    {
      "title": "Allergies and Adverse Reactions",
      "code": {
        "coding": [
          {
            "system": "http://loinc.org",
            "code": "48765-2",
            "display": "Allergies andor adverse reactions"
          }
        ]
      },
      "text": {
        "status": "additional",
        "div": "<div xmlns=\"http://www.w3.org/1999/xhtml\">\n        <p>No known medication allergies.</p>\n      </div>"
      },
      "entry": [
        {
          "reference": "#1509ea06-0856-43ed-8842-cc7e6f48c460"
        }
      ]
    },
    {
      "title": "Medical History",
      "code": {
        "coding": [
          {
            "system": "https://healthterminologies.gov.au/fhir/CodeSystem/nctis-data-components-1",
            "code": "101.16117"
          }
        ]
      },
      "text": {
        "status": "additional",
        "div": "<div xmlns=\"http://www.w3.org/1999/xhtml\">Unknown</div>"
      },
      "emptyReason": {
        "coding": [
          {
            "system": "http://hl7.org/fhir/list-empty-reason",
            "code": "unavailable",
            "display": "Unavailable"
          }
        ],
        "text": "Unknown"
      }
    },
    {
      "title": "Immunisations",
      "code": {
        "coding": [
          {
            "system": "http://loinc.org",
            "code": "11369-6"
          }
        ]
      },
      "text": {
        "status": "additional",
        "div": "<div xmlns=\"http://www.w3.org/1999/xhtml\">\n        <table border=\"5\">\n          <thead>\n            <tr>\n              <th>Vaccine</th>\n              <th>Date Administered</th>\n            </tr>\n          </thead>\n          <tbody>\n            <tr>\n              <td>\n                <b>Engerix-B Adult</b>\n              </td>\n              <td>09/10/2017</td>\n              <td/>\n            </tr>            \n            <tr>\n              <td>Fluvax 2015</td>\n              <td>03/10/2015</td>\n              <td/>\n            </tr>\n          </tbody>\n        </table></div>"
      },
      "entry": [
        {
          "reference": "#42bdb0e9-d510-46c4-a4a3-02205dbb1447"
        },
        {
          "reference": "#21e09e32-441a-4297-a803-970358b4f20f"
        }
      ]
    }
  ]
}