<?xml version="1.0" encoding="UTF-8"?>

<Composition xmlns="http://hl7.org/fhir">
  <id value="c53c6c39-3e1a-4038-9ad5-25be8c54481f"/>
  <meta>
    <profile value="http://ns.electronichealth.net.au/ci/fhir/3.0/StructureDefinition/composition-shs-1"/>
  </meta>
  <language value="en-AU"/>
  <text>
    <status value="additional"/><div xmlns="http://www.w3.org/1999/xhtml" lang="en-AU">
      <p><b> id</b> : c53c6c39-3e1a-4038-9ad5-25be8c54481f</p>
      <p><b>language</b>: en-AU</p>
      <p><b>status</b> : Final</p>
      <p><b>type</b>: Shared Health Summary <span style="background: LightGoldenRodYellow">(Details : {LOINC code '60591-5' = 'Patient summary Document', given as 'Patient Summary'})</span></p>
      <p><b> date</b> : 21/06/2017 09:00:15+10:00</p>
      <p><b>consumer</b>: HPI-I = 8003608666701594; name = Adam A. Everyman</p>
      <p><b>author</b>: HPI-I = 8003610000000000; name = Dr Peter Chalmers</p>
      <p><b>attester</b>: HPI-I = 8003610000000000; name = Dr Peter Chalmers</p>
      <p><b>title</b> : Shared Health Summary</p>
      <p><b>custodian</b>: ABN = 51824754455; name = Devonport Family Medicine Clinic</p>
    </div>
  </text>
  <contained>
    <Patient>
      <id value="d9698a55-723a-49de-931b-4e61d732b016"/>
      <meta>
        <profile value="http://ns.electronichealth.net.au/ci/fhir/3.0/StructureDefinition/patient-ident-1"/>
        <profile value="http://ns.electronichealth.net.au/ci/fhir/3.0/StructureDefinition/patient-ihi-1"/>
      </meta>
      <identifier>
        <type>
          <coding>
            <system value="http://hl7.org/fhir/v2/0203"/>
            <code value="NI"/>
            <display value="National unique individual identifier"/>
          </coding>
        </type>
        <system value="http://ns.electronichealth.net.au/id/hi/ihi/1.0"/>
        <value value="8003608666701594"/>
      </identifier>
      <name>
        <use value="official"/>
        <text value="Adam A. Everyman"/>
        <family value="Everyman"/>
        <given value="Adam"/>
        <given value="A."/>
      </name>
      <name>
        <use value="usual"/>
        <given value="Damo"/>
      </name>
      <gender value="male"/>
      <generalPractitioner>
        <reference value="#b44c4b41-16ae-46b1-b7b4-f4dd2bcd3654"/>
      </generalPractitioner>
      <managingOrganization>
        <reference value="#9df89ebf-b9ab-4ed5-b865-90892c1bbb1a"/>
      </managingOrganization>
    </Patient>
  </contained>
  <contained>
    <Practitioner>
      <id value="b44c4b41-16ae-46b1-b7b4-f4dd2bcd3654"/>
      <meta>
        <profile value="http://ns.electronichealth.net.au/ci/fhir/3.0/StructureDefinition/practitioner-dh-base-1"/>
        <profile value="http://ns.electronichealth.net.au/ci/fhir/3.0/StructureDefinition/practitioner-ident-1"/>
      </meta>
      <identifier>
        <type>
          <coding>
            <system value="http://hl7.org/fhir/v2/0203"/>
            <code value="NPI"/>
            <display value="National provider identifier"/>
          </coding>
          <text value="HPI-I"/>
        </type>
        <system value="http://ns.electronichealth.net.au/id/hi/hpii/1.0"/>
        <value value="8003610000000000"/>
      </identifier>
      <name>
        <use value="official"/>
        <family value="Chalmers"/>
        <given value="Peter"/>
        <prefix value="Dr."/>
      </name>
      <qualification>
        <identifier>
          <type>
            <coding>
              <system value="http://hl7.org.au/fhir/v2/0203"/>
              <code value="AHPRA"/>
              <display value="Australian Health Practitioner Regulation Agency Registration Number"/>
            </coding>
            <text value="AHPRA Registration Number"/>
          </type>
          <system value="http://hl7.org.au/id/ahpra-registration-number"/>
          <value value="MED0000932850"/>
        </identifier>
        <code>
          <coding>
            <system value="http://www.abs.gov.au/ausstats/abs@.nsf/mf/1220.0"/>
            <code value="253111"/>
            <display value="General Medical Practitioner"/>
          </coding>
          <text value="AHPRA qualification for General Practitioner"/>
        </code>
        <issuer>
          <display value="AHPRA"/>
        </issuer>
      </qualification>
    </Practitioner>
  </contained>
  <contained>
    <PractitionerRole>
      <id value="08da397e-01af-4236-a458-70b05d7e8df8"/>
      <meta>
        <profile value="http://ns.electronichealth.net.au/ci/fhir/3.0/StructureDefinition/practitionerrole-withpractitioner-1"/>
      </meta>
      <identifier>
        <type>
          <coding>
            <system value="http://hl7.org.au/fhir/v2/0203"/>
            <code value="UPIN"/>
          </coding>
          <text value="Medicare Provider Number"/>
        </type>
        <system value="http://ns.electronichealth.net.au/id/medicare-provider-number"/>
        <value value="5544887B"/>
      </identifier>
      <identifier>
        <type>
          <coding>
            <system value="http://hl7.org/fhir/v2/0203"/>
            <code value="NPI"/>
            <display value="National provider identifier"/>
          </coding>
          <text value="HPI-I"/>
        </type>
        <system value="http://ns.electronichealth.net.au/id/hi/hpii/1.0"/>
        <value value="8003610000000000"/>
      </identifier>
      <practitioner>
        <reference value="#b44c4b41-16ae-46b1-b7b4-f4dd2bcd3654"/>
      </practitioner>
      <organization>
        <reference value="#9df89ebf-b9ab-4ed5-b865-90892c1bbb1a"/>
      </organization>
      <code>
        <coding>
          <system value="http://www.abs.gov.au/ausstats/abs@.nsf/mf/1220.0"/>
          <code value="253111"/>
          <display value="General Practitioner"/>
        </coding>
        <text value="GP"/>
      </code>
      <telecom>
        <system value="email"/>
        <value value="pchalmers@example.albiongp.com.au"/>
        <use value="work"/>
      </telecom>
    </PractitionerRole>
  </contained>
  <contained>
    <Organization>
      <id value="9df89ebf-b9ab-4ed5-b865-90892c1bbb1a"/>
      <meta>
        <profile value="http://ns.electronichealth.net.au/ci/fhir/3.0/StructureDefinition/organization-ident-1"/>
        <profile value="http://ns.electronichealth.net.au/ci/fhir/3.0/StructureDefinition/organization-dh-base-1"/>
      </meta>
      <identifier>
        <type>
          <text value="ABN"/>
        </type>
        <system value="http://hl7.org.au/id/abn"/>
        <value value="51824754455"/>
      </identifier>
      <name value="Devonport Family Medicine Clinic"/>
      <telecom>
        <system value="email"/>
        <value value="reception@example.dfmc.com.au"/>
        <use value="work"/>
      </telecom>
      <telecom>
        <system value="fax"/>
        <value value="(03) 8543 5557"/>
        <use value="work"/>
      </telecom>
      <telecom>
        <system value="phone"/>
        <value value="(03) 8543 5556"/>
        <use value="work"/>
      </telecom>
      <address>
        <type value="postal"/>
        <line value="LPO Box 235"/>
        <city value="Strahan"/>
        <state value="TAS"/>
        <postalCode value="7468"/>
        <country value="AU"/>
      </address>
    </Organization>
  </contained>
  <contained>
    <AllergyIntolerance>
      <id value="1509ea06-0856-43ed-8842-cc7e6f48c460"/>
      <meta>
        <profile value="http://ns.electronichealth.net.au/ci/fhir/3.0/StructureDefinition/allergyintollerance-summary-1"/>
      </meta>
      <clinicalStatus value="active"/>
      <verificationStatus value="unconfirmed"/>
      <code>
        <coding>
          <system value="http://snomed.info/sct"/>
          <code value="409137002"/>
          <display value="No known drug allergy"/>
        </coding>
        <text value="No known medication allergies"/>
      </code>
      <patient>
        <reference value="#d9698a55-723a-49de-931b-4e61d732b016"/>
      </patient>
    </AllergyIntolerance>
  </contained>
  <contained>
    <MedicationStatement>
      <id value="21fcbd65-b116-4528-b396-5c834435bf68"/>
      <meta>
        <profile value="http://ns.electronichealth.net.au/ci/fhir/3.0/StructureDefinition/medicationstatement-summary-1"/>
      </meta>
      <status value="active"/>
      <medicationCodeableConcept>
        <text value="Ferrous sulphate &amp; vitamin C"/>
      </medicationCodeableConcept>
      <subject>
        <reference value="#d9698a55-723a-49de-931b-4e61d732b016"/>
      </subject>
      <taken value="y"/>
      <dosage>
        <text value="1 d"/>
      </dosage>
    </MedicationStatement>
  </contained>
  <contained>
    <MedicationStatement>
      <id value="d30f3bd7-7106-4530-8b10-e9b5c43c2ec8"/>
      <meta>
        <profile value="http://ns.electronichealth.net.au/ci/fhir/3.0/StructureDefinition/medicationstatement-summary-1"/>
      </meta>
      <status value="active"/>
      <medicationCodeableConcept>
        <text value="Fluticasone/salmeterol 250/25"/>
      </medicationCodeableConcept>
      <subject>
        <reference value="#d9698a55-723a-49de-931b-4e61d732b016"/>
      </subject>
      <taken value="y"/>
      <dosage>
        <text value="2 bd"/>
      </dosage>
    </MedicationStatement>
  </contained>
  <contained>
    <MedicationStatement>
      <id value="480ddf2a-885c-4a44-837a-25503b6ea740"/>
      <meta>
        <profile value="http://ns.electronichealth.net.au/ci/fhir/3.0/StructureDefinition/medicationstatement-summary-1"/>
      </meta>
      <status value="active"/>
      <medicationCodeableConcept>
        <text value="Sodium chloride 600mg"/>
      </medicationCodeableConcept>
      <subject>
        <reference value="#d9698a55-723a-49de-931b-4e61d732b016"/>
      </subject>
      <taken value="y"/>
      <dosage>
        <text value="3m, 3 midi, 2n"/>
      </dosage>
    </MedicationStatement>
  </contained>
  <contained>
    <MedicationStatement>
      <id value="c4292c20-8037-487d-9d8b-b834b59bfb17"/>
      <meta>
        <profile value="http://ns.electronichealth.net.au/ci/fhir/3.0/StructureDefinition/medicationstatement-summary-1"/>
      </meta>
      <status value="active"/>
      <medicationCodeableConcept>
        <text value="Mega B complex"/>
      </medicationCodeableConcept>
      <subject>
        <reference value="#d9698a55-723a-49de-931b-4e61d732b016"/>
      </subject>
      <taken value="y"/>
      <dosage>
        <text value="1 d"/>
      </dosage>
    </MedicationStatement>
  </contained>
  <contained>
    <MedicationStatement>
      <id value="a7f22a69-608c-49e2-911b-53b609b2be0a"/>
      <meta>
        <profile value="http://ns.electronichealth.net.au/ci/fhir/3.0/StructureDefinition/medicationstatement-summary-1"/>
      </meta>
      <status value="active"/>
      <medicationCodeableConcept>
        <text value="Multivitamin"/>
      </medicationCodeableConcept>
      <subject>
        <reference value="#d9698a55-723a-49de-931b-4e61d732b016"/>
      </subject>
      <taken value="y"/>
      <dosage>
        <text value="1 d"/>
      </dosage>
    </MedicationStatement>
  </contained>
  <contained>
    <MedicationStatement>
      <id value="bc8a3682-1060-4be9-a4a2-7210c71d5c11"/>
      <meta>
        <profile value="http://ns.electronichealth.net.au/ci/fhir/3.0/StructureDefinition/medicationstatement-summary-1"/>
      </meta>
      <status value="active"/>
      <medicationCodeableConcept>
        <text value="Bromhexine 0.8 mg/ml"/>
      </medicationCodeableConcept>
      <subject>
        <reference value="#d9698a55-723a-49de-931b-4e61d732b016"/>
      </subject>
      <taken value="y"/>
      <dosage>
        <text value="10 ml bd"/>
      </dosage>
    </MedicationStatement>
  </contained>
  <contained>
    <Immunization>
      <id value="42bdb0e9-d510-46c4-a4a3-02205dbb1447"/>
      <meta>
        <profile value="http://ns.electronichealth.net.au/ci/fhir/3.0/StructureDefinition/immunization-summary-administration-1"/>
      </meta>
      <status value="completed"/>
      <notGiven value="false"/>
      <vaccineCode>
        <coding>
          <system value="http://snomed.info/sct"/>
          <code value="33491000168108"/>
          <display value="Engerix-B Adult"/>
        </coding>
      </vaccineCode>
      <patient>
        <reference value="#d9698a55-723a-49de-931b-4e61d732b016"/>
      </patient>
      <date value="2017-10-09"/>
      <primarySource value="true"/>
    </Immunization>
  </contained>
  <contained>
    <Immunization>
      <id value="21e09e32-441a-4297-a803-970358b4f20f"/>
      <meta>
        <profile value="http://ns.electronichealth.net.au/ci/fhir/3.0/StructureDefinition/immunization-summary-administration-1"/>
      </meta>
      <status value="completed"/>
      <notGiven value="false"/>
      <vaccineCode>
        <coding>
          <system value="http://snomed.info/sct"/>
          <code value="709541000168107"/>
          <display value="Fluvax 2015"/>
        </coding>
      </vaccineCode>
      <patient>
        <reference value="#d9698a55-723a-49de-931b-4e61d732b016"/>
      </patient>
      <date value="2015-10-03"/>
      <primarySource value="true"/>
    </Immunization>
  </contained>
  <extension url="http://hl7.org.au/fhir/StructureDefinition/composition-author-role">
    <valueReference>
      <reference value="#08da397e-01af-4236-a458-70b05d7e8df8"/>
    </valueReference>
  </extension>
  <status value="final"/>
  <type>
    <coding>
      <system value="http://loinc.org"/>
      <code value="60591-5"/>
      <display value="Patient Summary"/>
    </coding>
  </type>
  <subject>
    <reference value="#d9698a55-723a-49de-931b-4e61d732b016"/>
  </subject>
  <date value="2017-06-21T09:00:15+10:00"/>
  <author>
    <reference value="#b44c4b41-16ae-46b1-b7b4-f4dd2bcd3654"/>
  </author>
  <title value="Shared Health Summary"/>
  <attester>
    <mode value="legal"/>
    <time value="2017-06-21T09:00:15+10:00"/>
    <party>
      <reference value="#b44c4b41-16ae-46b1-b7b4-f4dd2bcd3654"/>
    </party>
  </attester>
  <custodian>
    <reference value="#9df89ebf-b9ab-4ed5-b865-90892c1bbb1a"/>
  </custodian>
  <section>
    <title value="Current Medications"/>
    <code>
      <coding>
        <system value="https://healthterminologies.gov.au/fhir/CodeSystem/nctis-data-components-1"/>
        <code value="101.32009"/>
        <display value="Current Medicine"/>
      </coding>
    </code>
    <text>
      <status value="additional"/><div xmlns="http://www.w3.org/1999/xhtml">
        <table border="5">
          <thead>
            <tr>
              <th>Medication</th>
              <th>Dose</th>
              <th>Purpose/Comment</th>
            </tr>
          </thead>
          <tbody>
            <tr>
              <td><i>Ferrous sulphate &amp; vitamin C</i></td>
              <td><i>1 d</i></td>
              <td/>
            </tr>
            <tr>
              <td>Fluticasone/salmeterol 250/25</td>
              <td>2 bd</td>
              <td/>
            </tr>
            <tr>
              <td>Sodium chloride 600mg</td>
              <td>3 m, 3 midi, 2 n</td>
              <td/>
            </tr>                        
            <tr>
              <td>
                <b>Mega B complex</b>
              </td>
              <td>
                <b>1 d</b>
              </td>
              <td/>
            </tr>
            <tr>
              <td>
                <b>Multivitamin</b>
              </td>
              <td>
                <b>1 d</b>
              </td>
              <td/>
            </tr>            
            <tr>
              <td>Bromhexine 0.8mg/ml 
              </td>
              <td>
                <b>10ml bd</b>
              </td>
              <td/>
            </tr>
          </tbody>
        </table></div>
    </text>
    <entry>
      <reference value="#21fcbd65-b116-4528-b396-5c834435bf68"/>
    </entry>
    <entry>
      <reference value="#d30f3bd7-7106-4530-8b10-e9b5c43c2ec8"/>
    </entry>
    <entry>
      <reference value="#480ddf2a-885c-4a44-837a-25503b6ea740"/>
    </entry>
    <entry>
      <reference value="#c4292c20-8037-487d-9d8b-b834b59bfb17"/>
    </entry>
    <entry>
      <reference value="#a7f22a69-608c-49e2-911b-53b609b2be0a"/>
    </entry>
    <entry>
      <reference value="#bc8a3682-1060-4be9-a4a2-7210c71d5c11"/>
    </entry>
  </section>
  <section>
    <title value="Allergies and Adverse Reactions"/>
    <code>
      <coding>
        <system value="http://loinc.org"/>
        <code value="48765-2"/>
        <display value="Allergies andor adverse reactions"/>
      </coding>
    </code>
    <text>
      <status value="additional"/><div xmlns="http://www.w3.org/1999/xhtml">
        <p>No known medication allergies.</p>
      </div>
    </text>
    <entry>
      <reference value="#1509ea06-0856-43ed-8842-cc7e6f48c460"/>
    </entry>
  </section>
  <section>
    <title value="Medical History"/>
    <code>
      <coding>
        <system value="https://healthterminologies.gov.au/fhir/CodeSystem/nctis-data-components-1"/>
        <code value="101.16117"/>
      </coding>
    </code>
    <text>
      <status value="additional"/><div xmlns="http://www.w3.org/1999/xhtml">Unknown</div>
    </text>
    <emptyReason>
      <coding>
        <system value="http://hl7.org/fhir/list-empty-reason"/>
        <code value="unavailable"/>
        <display value="Unavailable"/>
      </coding>
      <text value="Unknown"/>
    </emptyReason>
  </section>
  <section>
    <title value="Immunisations"/>
    <code>
      <coding>
        <system value="http://loinc.org"/>
        <code value="11369-6"/>
      </coding>
    </code>
    <text>
      <status value="additional"/><div xmlns="http://www.w3.org/1999/xhtml">
        <table border="5">
          <thead>
            <tr>
              <th>Vaccine</th>
              <th>Date Administered</th>
            </tr>
          </thead>
          <tbody>
            <tr>
              <td>
                <b>Engerix-B Adult</b>
              </td>
              <td>09/10/2017</td>
              <td/>
            </tr>            
            <tr>
              <td>Fluvax 2015</td>
              <td>03/10/2015</td>
              <td/>
            </tr>
          </tbody>
        </table></div>
    </text>
    <entry>
      <reference value="#42bdb0e9-d510-46c4-a4a3-02205dbb1447"/>
    </entry>
    <entry>
      <reference value="#21e09e32-441a-4297-a803-970358b4f20f"/>
    </entry>
  </section>
</Composition>