{
  "resourceType": "Composition",
  "id": "bd06e981-ba86-4020-ba59-cd89f80e8712",
  "meta": {
    "profile": [
      "http://ns.electronichealth.net.au/ci/fhir/3.0/StructureDefinition/composition-shs-1"
    ]
  },
  "language": "en-AU",
  "text": {
    "status": "additional",
    "div": "<div xmlns=\"http://www.w3.org/1999/xhtml\" lang=\"en-AU\">\n      \n      <h1>Shared Health Summary</h1>\n      \n      <h2>Consumer details</h2>\n      <table>\n        <tbody>\n          <tr>\n            <th>Name</th>\n            <td>Adam A. Everyman</td>\n          </tr>\n          <tr>\n            <th>Identifier</th>\n            <td>IHI: 8003608666701594</td>\n          </tr>\n          <tr>\n            <th>Gender</th>\n            <td>Male</td>\n          </tr>\n        </tbody>\n      </table>\n      \n      <h2>Author details</h2>\n      <table>\n        <tbody>\n          <tr>\n            <th>Name</th>\n            <td>Dr. Peter Chalmers</td>\n          </tr>\n          <tr>\n            <th>Identifier</th>\n            <td>HPI-I: 8003610000000000</td>\n          </tr>          \n        </tbody>\n      </table>\n      \n      <h2>Document details</h2>\n      <table>\n        <tbody>\n          <tr>\n            <th>Document ID</th>\n            <td>bd06e981-ba86-4020-ba59-cd89f80e8712</td>\n          </tr>\n          <tr>\n            <th>Language</th>\n            <td>en-AU</td>\n          </tr>\n          <tr>\n            <th>Status</th>\n            <td>Final</td>\n          </tr>\n          <tr>\n            <th>Created</th>\n            <td>21 June 2017, 09:00:15</td>\n          </tr>\n          <tr>\n            <th>Attester</th>\n            <td>HPI-I: 8003610000000000</td>\n          </tr>\n          <tr>\n            <th>Custodian</th>\n            <td>PAI-O: 8003640001000036</td>\n          </tr>\n        </tbody>\n      </table>\n    </div>"
  },
  "contained": [
    {
      "resourceType": "Patient",
      "id": "841a56de-92d7-47fd-bb27-bad8efb371e4",
      "meta": {
        "profile": [
          "http://ns.electronichealth.net.au/ci/fhir/3.0/StructureDefinition/patient-ident-1",
          "http://ns.electronichealth.net.au/ci/fhir/3.0/StructureDefinition/patient-ihi-1"
        ]
      },
      "identifier": [
        {
          "type": {
            "coding": [
              {
                "system": "http://hl7.org/fhir/v2/0203",
                "code": "NI",
                "display": "National unique individual identifier"
              }
            ]
          },
          "system": "http://ns.electronichealth.net.au/id/hi/ihi/1.0",
          "value": "8003608666701594"
        }
      ],
      "name": [
        {
          "use": "official",
          "text": "Adam A. Everyman",
          "family": "Everyman",
          "given": [
            "Adam",
            "A."
          ]
        },
        {
          "use": "usual",
          "given": [
            "Damo"
          ]
        }
      ],
      "gender": "male"
    },
    {
      "resourceType": "Practitioner",
      "id": "428f6506-625f-4f16-b0e2-b31ab6d293bf",
      "meta": {
        "profile": [
          "http://ns.electronichealth.net.au/ci/fhir/3.0/StructureDefinition/practitioner-dh-base-1",
          "http://ns.electronichealth.net.au/ci/fhir/3.0/StructureDefinition/practitioner-ident-1"
        ]
      },
      "identifier": [
        {
          "type": {
            "coding": [
              {
                "system": "http://hl7.org/fhir/v2/0203",
                "code": "NPI",
                "display": "National provider identifier"
              }
            ],
            "text": "HPI-I"
          },
          "system": "http://ns.electronichealth.net.au/id/hi/hpii/1.0",
          "value": "8003610000000000"
        }
      ],
      "name": [
        {
          "use": "official",
          "family": "Chalmers",
          "given": [
            "Peter"
          ],
          "prefix": [
            "Dr."
          ]
        }
      ],
      "telecom": [
        {
          "system": "email",
          "value": "pchalmers@example.albiongp.com.au",
          "use": "work"
        }
      ]
    },
    {
      "resourceType": "PractitionerRole",
      "id": "f61db690-0ba4-4219-acd4-021ecc6a36fd",
      "meta": {
        "profile": [
          "http://ns.electronichealth.net.au/ci/fhir/3.0/StructureDefinition/practitionerrole-withpractitioner-1"
        ]
      },
      "identifier": [
        {
          "type": {
            "coding": [
              {
                "system": "http://hl7.org/fhir/v2/0203",
                "code": "NPI",
                "display": "National provider identifier"
              }
            ],
            "text": "HPI-I"
          },
          "system": "http://ns.electronichealth.net.au/id/hi/hpii/1.0",
          "value": "8003610000000000"
        }
      ],
      "practitioner": {
        "reference": "#428f6506-625f-4f16-b0e2-b31ab6d293bf"
      },
      "organization": {
        "reference": "#64e56b9c-e51d-4157-b379-34e71e3dbfa4"
      },
      "code": [
        {
          "coding": [
            {
              "system": "http://www.abs.gov.au/ausstats/abs@.nsf/mf/1220.0",
              "code": "253111",
              "display": "General Practitioner"
            }
          ],
          "text": "GP"
        }
      ]
    },
    {
      "resourceType": "Organization",
      "id": "64e56b9c-e51d-4157-b379-34e71e3dbfa4",
      "meta": {
        "profile": [
          "http://ns.electronichealth.net.au/ci/fhir/3.0/StructureDefinition/organization-ident-1",
          "http://ns.electronichealth.net.au/ci/fhir/3.0/StructureDefinition/organization-dh-base-1"
        ]
      },
      "identifier": [
        {
          "type": {
            "text": "PAI-O"
          },
          "system": "http://ns.electronichealth.net.au/id/pcehr/paio/1.0",
          "value": "8003640001000036"
        }
      ],
      "name": "Albion GP Clinic"
    },
    {
      "resourceType": "AllergyIntolerance",
      "id": "c5c80cde-70d0-4644-9d55-ae5574fcd8ea",
      "meta": {
        "profile": [
          "http://ns.electronichealth.net.au/ci/fhir/3.0/StructureDefinition/allergyintollerance-summary-1"
        ]
      },
      "clinicalStatus": "active",
      "verificationStatus": "unconfirmed",
      "code": {
        "text": "Penicillin"
      },
      "patient": {
        "reference": "#841a56de-92d7-47fd-bb27-bad8efb371e4"
      },
      "reaction": [
        {
          "manifestation": [
            {
              "text": "Rash; Nausea and vomiting"
            }
          ]
        }
      ]
    },
    {
      "resourceType": "AllergyIntolerance",
      "id": "d977ab88-ecbe-49c1-99b7-9b1afbb65563",
      "meta": {
        "profile": [
          "http://ns.electronichealth.net.au/ci/fhir/3.0/StructureDefinition/allergyintollerance-summary-1"
        ]
      },
      "clinicalStatus": "active",
      "verificationStatus": "unconfirmed",
      "code": {
        "text": "Nuts"
      },
      "patient": {
        "reference": "#841a56de-92d7-47fd-bb27-bad8efb371e4"
      },
      "reaction": [
        {
          "manifestation": [
            {
              "text": "Breathing problems"
            }
          ]
        }
      ]
    },
    {
      "resourceType": "Observation",
      "id": "dd82cc78-60b0-41cb-83d4-32521d3b9fa2",
      "meta": {
        "profile": [
          "http://ns.electronichealth.net.au/ci/fhir/3.0/StructureDefinition/observation-norelevantfinding-1"
        ]
      },
      "status": "final",
      "code": {
        "coding": [
          {
            "system": "http://hl7.org/fhir/v3/ActCode",
            "code": "ASSERTION",
            "display": "Assertion"
          }
        ]
      },
      "subject": {
        "reference": "#841a56de-92d7-47fd-bb27-bad8efb371e4"
      },
      "effectiveDateTime": "2017-06-21",
      "valueCodeableConcept": {
        "coding": [
          {
            "system": "http://snomed.info/sct",
            "code": "1234391000168107",
            "display": "No known current medications"
          }
        ]
      }
    },
    {
      "resourceType": "Immunization",
      "id": "7e7dbbfe-5afb-4938-86eb-27060b5daba7",
      "meta": {
        "profile": [
          "http://ns.electronichealth.net.au/ci/fhir/3.0/StructureDefinition/immunization-summary-administration-1"
        ]
      },
      "status": "completed",
      "notGiven": false,
      "vaccineCode": {
        "coding": [
          {
            "system": "http://snomed.info/sct",
            "code": "33491000168108",
            "display": "Engerix-B Adult"
          }
        ]
      },
      "patient": {
        "reference": "#841a56de-92d7-47fd-bb27-bad8efb371e4"
      },
      "date": "2017-10-09",
      "primarySource": true
    },
    {
      "resourceType": "Immunization",
      "id": "d4b8094b-435e-4b43-b38b-f38328bddda3",
      "meta": {
        "profile": [
          "http://ns.electronichealth.net.au/ci/fhir/3.0/StructureDefinition/immunization-summary-administration-1"
        ]
      },
      "status": "completed",
      "notGiven": false,
      "vaccineCode": {
        "coding": [
          {
            "system": "http://snomed.info/sct",
            "code": "73695011000036100",
            "display": "Meningitec"
          }
        ]
      },
      "patient": {
        "reference": "#841a56de-92d7-47fd-bb27-bad8efb371e4"
      },
      "date": "2017-09-10",
      "primarySource": true
    },
    {
      "resourceType": "Immunization",
      "id": "8f9e3a4e-64d0-48b8-ac1b-85f9ecfeae06",
      "meta": {
        "profile": [
          "http://ns.electronichealth.net.au/ci/fhir/3.0/StructureDefinition/immunization-summary-administration-1"
        ]
      },
      "status": "completed",
      "notGiven": false,
      "vaccineCode": {
        "coding": [
          {
            "system": "http://snomed.info/sct",
            "code": "709541000168107",
            "display": "Fluvax 2015"
          }
        ]
      },
      "patient": {
        "reference": "#841a56de-92d7-47fd-bb27-bad8efb371e4"
      },
      "date": "2015-10-03",
      "primarySource": true
    }
  ],
  "extension": [
    {
      "url": "http://hl7.org.au/fhir/StructureDefinition/composition-author-role",
      "valueReference": {
        "reference": "#f61db690-0ba4-4219-acd4-021ecc6a36fd"
      }
    }
  ],
  "status": "final",
  "type": {
    "coding": [
      {
        "system": "http://loinc.org",
        "code": "60591-5",
        "display": "Patient Summary"
      }
    ]
  },
  "subject": {
    "reference": "#841a56de-92d7-47fd-bb27-bad8efb371e4"
  },
  "date": "2017-06-21T09:00:15+10:00",
  "author": [
    {
      "reference": "#428f6506-625f-4f16-b0e2-b31ab6d293bf"
    }
  ],
  "title": "Shared Health Summary",
  "attester": [
    {
      "mode": [
        "legal"
      ],
      "time": "2017-06-21T09:00:15+10:00",
      "party": {
        "reference": "#428f6506-625f-4f16-b0e2-b31ab6d293bf"
      }
    }
  ],
  "custodian": {
    "reference": "#64e56b9c-e51d-4157-b379-34e71e3dbfa4"
  },
  "section": [
    {
      "title": "Current Medications",
      "code": {
        "coding": [
          {
            "system": "https://healthterminologies.gov.au/fhir/CodeSystem/nctis-data-components-1",
            "code": "101.32009",
            "display": "Current Medicine"
          }
        ]
      },
      "text": {
        "status": "additional",
        "div": "<div xmlns=\"http://www.w3.org/1999/xhtml\">\n        <p>None</p>\n      </div>"
      },
      "entry": [
        {
          "reference": "#dd82cc78-60b0-41cb-83d4-32521d3b9fa2"
        }
      ]
    },
    {
      "title": "Allergies and Adverse Reactions",
      "code": {
        "coding": [
          {
            "system": "http://loinc.org",
            "code": "48765-2",
            "display": "Allergies andor adverse reactions"
          }
        ]
      },
      "text": {
        "status": "additional",
        "div": "<div xmlns=\"http://www.w3.org/1999/xhtml\">\n        <table>\n          <thead>\n            <tr>\n              <th>Agent</th>\n              <th>Reaction Description</th>\n            </tr>\n          </thead>\n          <tbody>\n            <tr>\n              <td>Penicillin</td>\n              <td>Rash; Nausea and vomiting</td>\n            </tr>\n            <tr>\n              <td>Nuts</td>\n              <td>Breathing problems</td>\n            </tr>\n          </tbody>\n        </table>\n      </div>"
      },
      "entry": [
        {
          "reference": "#c5c80cde-70d0-4644-9d55-ae5574fcd8ea"
        },
        {
          "reference": "#d977ab88-ecbe-49c1-99b7-9b1afbb65563"
        }
      ]
    },
    {
      "title": "Medical History",
      "code": {
        "coding": [
          {
            "system": "https://healthterminologies.gov.au/fhir/CodeSystem/nctis-data-components-1",
            "code": "101.16117"
          }
        ]
      },
      "text": {
        "status": "additional",
        "div": "<div xmlns=\"http://www.w3.org/1999/xhtml\">Unknown</div>"
      },
      "emptyReason": {
        "coding": [
          {
            "system": "http://hl7.org/fhir/list-empty-reason",
            "code": "unavailable",
            "display": "Unavailable"
          }
        ],
        "text": "Unknown"
      }
    },
    {
      "title": "Immunisations",
      "code": {
        "coding": [
          {
            "system": "http://loinc.org",
            "code": "11369-6"
          }
        ]
      },
      "text": {
        "status": "additional",
        "div": "<div xmlns=\"http://www.w3.org/1999/xhtml\">\n        <table border=\"5\">\n          <thead>\n            <tr>\n              <th>Vaccine</th>\n              <th>Date Administered</th>\n            </tr>\n          </thead>\n          <tbody>\n            <tr>\n              <td>\n                <b>Engerix-B Adult</b>\n              </td>\n              <td>09/10/2017</td>\n              <td/>\n            </tr> \n            <tr>\n              <td>\n                <b>Meningitec</b>\n              </td>\n              <td>10/09/2017</td>\n              <td/>\n            </tr>\n            <tr>\n              <td>Fluvax 2015</td>\n              <td>03/10/2015</td>\n              <td/>\n            </tr>\n          </tbody>\n        </table></div>"
      },
      "entry": [
        {
          "reference": "#7e7dbbfe-5afb-4938-86eb-27060b5daba7"
        },
        {
          "reference": "#d4b8094b-435e-4b43-b38b-f38328bddda3"
        },
        {
          "reference": "#8f9e3a4e-64d0-48b8-ac1b-85f9ecfeae06"
        }
      ]
    }
  ]
}