{
  "resourceType": "Composition",
  "id": "a0da969a-7956-439b-b390-8de071a2df7c",
  "meta": {
    "profile": [
      "http://ns.electronichealth.net.au/ci/fhir/3.0/StructureDefinition/composition-shs-1"
    ]
  },
  "language": "en-AU",
  "text": {
    "status": "additional",
    "div": "<div xmlns=\"http://www.w3.org/1999/xhtml\" lang=\"en-AU\">\n      <p><b> id</b> : a0da969a-7956-439b-b390-8de071a2df7c</p>\n      <p><b>Language</b>: en-AU</p>\n      <p><b>Status</b> : final</p>\n      <p><b>Type</b>: Shared Health Summary <span style=\"background: LightGoldenRodYellow\">(Details : {LOINC code '60591-5' = 'Patient summary Document', given as 'Patient Summary'})</span></p>\n      <p><b>Date</b> : 21/06/2017 09:00:15+10:00</p>\n      <p><b>Consumer</b>: HPI-I = 8003608666701594; name = Sammy GoodPatient</p>\n      <p><b>Author</b>: HPI-I = 8003610000000000; name = Barry Helpman M.D.</p>\n      <p><b>Attester</b>: HPI-I = 8003610000000000; name = Barry Helpman M.D.</p>\n      <p><b>Title</b> : Shared Health Summary</p>\n      <p><b>Custodian</b>: ABN = 51824754455; name = Devonport Family Medicine Clinic</p>\n    </div>"
  },
  "contained": [
    {
      "resourceType": "MedicationStatement",
      "id": "f7583f71-7736-4d10-89f7-fa1845e53120",
      "meta": {
        "profile": [
          "http://ns.electronichealth.net.au/ci/fhir/3.0/StructureDefinition/medicationstatement-summary-1"
        ]
      },
      "status": "active",
      "medicationCodeableConcept": {
        "coding": [
          {
            "system": "http://snomed.info/sct",
            "code": "22087011000036100",
            "display": "candesartan cilexetil 32 mg tablet"
          }
        ],
        "text": "Candesartan 32mg"
      },
      "subject": {
        "reference": "#e6e84607-a0da-4ead-9ed6-5e064fea9fc4"
      },
      "taken": "y",
      "dosage": [
        {
          "text": "1 d",
          "timing": {
            "repeat": {
              "frequency": 1,
              "period": 1,
              "periodUnit": "d"
            }
          },
          "doseQuantity": {
            "value": 1,
            "unit": "﻿tablet",
            "system": "http://snomed.info/sct",
            "code": "63011000036109"
          }
        }
      ]
    },
    {
      "resourceType": "MedicationStatement",
      "id": "314619c2-2d97-4fb9-9c25-b0b9da92f804",
      "meta": {
        "profile": [
          "http://ns.electronichealth.net.au/ci/fhir/3.0/StructureDefinition/medicationstatement-summary-1"
        ]
      },
      "status": "active",
      "medicationCodeableConcept": {
        "coding": [
          {
            "system": "http://snomed.info/sct",
            "code": "23358011000036102",
            "display": "metformin hydrochloride 500 mg tablet"
          }
        ],
        "text": "Metformin 500mg"
      },
      "subject": {
        "reference": "#e6e84607-a0da-4ead-9ed6-5e064fea9fc4"
      },
      "taken": "y",
      "dosage": [
        {
          "text": "1 bd",
          "timing": {
            "repeat": {
              "frequency": 2,
              "period": 1,
              "periodUnit": "d"
            }
          },
          "doseQuantity": {
            "value": 1,
            "unit": "﻿tablet",
            "system": "http://snomed.info/sct",
            "code": "63011000036109"
          }
        }
      ]
    },
    {
      "resourceType": "MedicationStatement",
      "id": "90d418aa-ed53-447b-95d2-099101ed4339",
      "meta": {
        "profile": [
          "http://ns.electronichealth.net.au/ci/fhir/3.0/StructureDefinition/medicationstatement-summary-1"
        ]
      },
      "status": "active",
      "medicationCodeableConcept": {
        "coding": [
          {
            "system": "http://snomed.info/sct",
            "code": "22879011000036102",
            "display": "candesartan cilexetil 8 mg tablet"
          }
        ],
        "text": "Candesartan 8mg"
      },
      "subject": {
        "reference": "#e6e84607-a0da-4ead-9ed6-5e064fea9fc4"
      },
      "taken": "y",
      "dosage": [
        {
          "text": "0.5 d",
          "timing": {
            "repeat": {
              "frequency": 1,
              "period": 1,
              "periodUnit": "d"
            }
          },
          "doseQuantity": {
            "value": 0.5,
            "unit": "﻿tablet",
            "system": "http://snomed.info/sct",
            "code": "63011000036109"
          }
        }
      ]
    },
    {
      "resourceType": "Patient",
      "id": "e6e84607-a0da-4ead-9ed6-5e064fea9fc4",
      "meta": {
        "profile": [
          "http://ns.electronichealth.net.au/ci/fhir/3.0/StructureDefinition/patient-ident-1",
          "http://ns.electronichealth.net.au/ci/fhir/3.0/StructureDefinition/patient-ihi-1"
        ]
      },
      "extension": [
        {
          "url": "http://hl7.org.au/fhir/StructureDefinition/indigenous-status",
          "valueCoding": {
            "system": "https://healthterminologies.gov.au/fhir/CodeSystem/australian-indigenous-status-1",
            "code": "9",
            "display": "Not stated/inadequately described"
          }
        }
      ],
      "identifier": [
        {
          "type": {
            "coding": [
              {
                "system": "http://hl7.org/fhir/v2/0203",
                "code": "NI",
                "display": "National unique individual identifier"
              }
            ]
          },
          "system": "http://ns.electronichealth.net.au/id/hi/ihi/1.0",
          "value": "8003608666701594"
        }
      ],
      "name": [
        {
          "text": "Sammy GoodPatient",
          "family": "GoodPatient",
          "given": [
            "Sammy"
          ]
        }
      ],
      "gender": "other",
      "birthDate": "1956-08-23",
      "generalPractitioner": [
        {
          "reference": "#20f15728-f3ac-4877-b55a-107f94dbd00c"
        }
      ],
      "managingOrganization": {
        "reference": "#021fff67-c5ec-438f-9520-ce9bafee1306"
      }
    },
    {
      "resourceType": "Practitioner",
      "id": "40a94071-8373-4d53-a788-63b79c75a3c1",
      "meta": {
        "profile": [
          "http://ns.electronichealth.net.au/ci/fhir/3.0/StructureDefinition/practitioner-dh-base-1",
          "http://ns.electronichealth.net.au/ci/fhir/3.0/StructureDefinition/practitioner-ident-1"
        ]
      },
      "identifier": [
        {
          "type": {
            "coding": [
              {
                "system": "http://hl7.org/fhir/v2/0203",
                "code": "NPI",
                "display": "National provider identifier"
              }
            ],
            "text": "HPI-I"
          },
          "system": "http://ns.electronichealth.net.au/id/hi/hpii/1.0",
          "value": "8003610000000000"
        }
      ],
      "name": [
        {
          "use": "official",
          "family": "Helpman",
          "given": [
            "Barry"
          ],
          "suffix": [
            "M.D."
          ]
        }
      ],
      "telecom": [
        {
          "system": "email",
          "value": "bhelpman@example.devonportgp.com.au",
          "use": "work"
        }
      ],
      "qualification": [
        {
          "identifier": [
            {
              "type": {
                "coding": [
                  {
                    "system": "http://hl7.org.au/fhir/v2/0203",
                    "code": "AHPRA",
                    "display": "Australian Health Practitioner Regulation Agency Registration Number"
                  }
                ],
                "text": "AHPRA Registration Number"
              },
              "system": "http://hl7.org.au/id/ahpra-registration-number",
              "value": "MED0000932850"
            }
          ],
          "code": {
            "coding": [
              {
                "system": "http://www.abs.gov.au/ausstats/abs@.nsf/mf/1220.0",
                "code": "253111",
                "display": "General Medical Practitioner"
              }
            ],
            "text": "AHPRA qualification for General Practitioner"
          },
          "issuer": {
            "display": "AHPRA"
          }
        }
      ]
    },
    {
      "resourceType": "Practitioner",
      "id": "20f15728-f3ac-4877-b55a-107f94dbd00c",
      "meta": {
        "profile": [
          "http://ns.electronichealth.net.au/ci/fhir/3.0/StructureDefinition/practitioner-dh-base-1"
        ]
      },
      "name": [
        {
          "use": "official",
          "family": "Doctor",
          "given": [
            "Good"
          ],
          "prefix": [
            "Dr."
          ]
        }
      ]
    },
    {
      "resourceType": "PractitionerRole",
      "id": "45cad6ac-e9a3-418a-8480-4e64132849f2",
      "meta": {
        "profile": [
          "http://ns.electronichealth.net.au/ci/fhir/3.0/StructureDefinition/practitionerrole-withpractitioner-1"
        ]
      },
      "identifier": [
        {
          "type": {
            "coding": [
              {
                "system": "http://hl7.org.au/fhir/v2/0203",
                "code": "UPIN"
              }
            ],
            "text": "Medicare Provider Number"
          },
          "system": "http://ns.electronichealth.net.au/id/medicare-provider-number",
          "value": "5544887B"
        },
        {
          "type": {
            "coding": [
              {
                "system": "http://hl7.org/fhir/v2/0203",
                "code": "NPI",
                "display": "National provider identifier"
              }
            ],
            "text": "HPI-I"
          },
          "system": "http://ns.electronichealth.net.au/id/hi/hpii/1.0",
          "value": "8003610000000000"
        }
      ],
      "practitioner": {
        "reference": "#40a94071-8373-4d53-a788-63b79c75a3c1"
      },
      "organization": {
        "reference": "#021fff67-c5ec-438f-9520-ce9bafee1306"
      },
      "code": [
        {
          "coding": [
            {
              "system": "http://www.abs.gov.au/ausstats/abs@.nsf/mf/1220.0",
              "code": "253111",
              "display": "General Practitioner"
            }
          ],
          "text": "GP"
        }
      ]
    },
    {
      "resourceType": "Organization",
      "id": "021fff67-c5ec-438f-9520-ce9bafee1306",
      "meta": {
        "profile": [
          "http://ns.electronichealth.net.au/ci/fhir/3.0/StructureDefinition/organization-ident-1"
        ]
      },
      "identifier": [
        {
          "type": {
            "text": "ABN"
          },
          "system": "http://hl7.org.au/id/abn",
          "value": "51824754455"
        }
      ],
      "name": "Devonport Family Medicine Clinic",
      "telecom": [
        {
          "system": "email",
          "value": "reception@example.dfmc.com.au",
          "use": "work"
        },
        {
          "system": "fax",
          "value": "(03) 8543 5557",
          "use": "work"
        },
        {
          "system": "phone",
          "value": "(03) 8543 5556",
          "use": "work"
        }
      ],
      "address": [
        {
          "type": "postal",
          "line": [
            "LPO Box 235"
          ],
          "city": "Strahan",
          "state": "TAS",
          "postalCode": "7468",
          "country": "AU"
        }
      ]
    },
    {
      "resourceType": "AllergyIntolerance",
      "id": "a5e03840-1be4-43e0-acd2-c9e288adc4f9",
      "meta": {
        "profile": [
          "http://ns.electronichealth.net.au/ci/fhir/3.0/StructureDefinition/allergyintollerance-summary-1"
        ]
      },
      "clinicalStatus": "active",
      "verificationStatus": "unconfirmed",
      "code": {
        "coding": [
          {
            "system": "http://snomed.info/sct",
            "code": "409137002",
            "display": "No known drug allergy"
          }
        ],
        "text": "No known medication allergies"
      },
      "patient": {
        "reference": "#e6e84607-a0da-4ead-9ed6-5e064fea9fc4"
      }
    },
    {
      "resourceType": "Procedure",
      "id": "3bc4a0f3-1d3e-4bde-83a9-7a04dd5f4a77",
      "meta": {
        "profile": [
          "http://ns.electronichealth.net.au/ci/fhir/3.0/StructureDefinition/procedure-summary-1"
        ]
      },
      "status": "completed",
      "code": {
        "coding": [
          {
            "system": "http://snomed.info/sct",
            "code": "443681002",
            "display": "Total replacement of left knee joint"
          }
        ]
      },
      "subject": {
        "reference": "#e6e84607-a0da-4ead-9ed6-5e064fea9fc4"
      },
      "performedDateTime": "2015-02-27"
    },
    {
      "resourceType": "Condition",
      "id": "cfa41daf-b5a6-4a05-9166-a4b7c23f08a1",
      "meta": {
        "profile": [
          "http://ns.electronichealth.net.au/ci/fhir/3.0/StructureDefinition/condition-summary-1"
        ]
      },
      "clinicalStatus": "active",
      "code": {
        "coding": [
          {
            "system": "http://snomed.info/sct",
            "code": "49436004",
            "display": "Atrial fibrillation"
          }
        ]
      },
      "subject": {
        "reference": "#e6e84607-a0da-4ead-9ed6-5e064fea9fc4"
      },
      "onsetDateTime": "2017"
    },
    {
      "resourceType": "Condition",
      "id": "b021320c-bc5e-4ae8-b9fc-1ed2d876e889",
      "meta": {
        "profile": [
          "http://ns.electronichealth.net.au/ci/fhir/3.0/StructureDefinition/condition-summary-1"
        ]
      },
      "clinicalStatus": "resolved",
      "code": {
        "coding": [
          {
            "system": "http://snomed.info/sct",
            "code": "301001009",
            "display": "Right lower zone pneumonia"
          }
        ]
      },
      "subject": {
        "reference": "#e6e84607-a0da-4ead-9ed6-5e064fea9fc4"
      },
      "onsetDateTime": "2017-03",
      "abatementDateTime": "2017-04-03"
    }
  ],
  "extension": [
    {
      "url": "http://hl7.org.au/fhir/StructureDefinition/composition-author-role",
      "valueReference": {
        "reference": "#45cad6ac-e9a3-418a-8480-4e64132849f2"
      }
    }
  ],
  "identifier": {
    "system": "urn:ietf:rfc:3986",
    "value": "urn:uuid:c009fbfd-c0ab-45cc-9536-735a624c943c"
  },
  "status": "final",
  "type": {
    "coding": [
      {
        "system": "http://loinc.org",
        "code": "60591-5",
        "display": "Patient Summary"
      }
    ]
  },
  "subject": {
    "reference": "#e6e84607-a0da-4ead-9ed6-5e064fea9fc4"
  },
  "date": "2017-06-21T09:00:15+10:00",
  "author": [
    {
      "reference": "#40a94071-8373-4d53-a788-63b79c75a3c1"
    }
  ],
  "title": "Shared Health Summary",
  "attester": [
    {
      "mode": [
        "legal"
      ],
      "time": "2017-06-21T09:00:15+10:00",
      "party": {
        "reference": "#40a94071-8373-4d53-a788-63b79c75a3c1"
      }
    }
  ],
  "custodian": {
    "reference": "#021fff67-c5ec-438f-9520-ce9bafee1306"
  },
  "section": [
    {
      "title": "Current Medications",
      "code": {
        "coding": [
          {
            "system": "https://healthterminologies.gov.au/fhir/CodeSystem/nctis-data-components-1",
            "code": "101.32009",
            "display": "Current Medicine"
          }
        ]
      },
      "text": {
        "status": "additional",
        "div": "<div xmlns=\"http://www.w3.org/1999/xhtml\">\n        <table border=\"5\">\n          <caption>Medications</caption>\n          <thead>\n            <tr>\n              <th>Medication</th>\n              <th>Dose</th>\n              <th>Purpose/Comment</th>\n            </tr>\n          </thead>\n          <tbody>\n            <tr>\n              <td>Candesartan 32mg</td>\n              <td>1 d</td>\n              <td/>\n            </tr>\n            <tr>\n              <td>Metformin 500mg</td>\n              <td>1 bd</td>\n              <td/>\n            </tr>\n            <tr>\n              <td>Candesartan 8mg</td>\n              <td>0.5 d</td>\n              <td/>\n            </tr>\n          </tbody>\n        </table>\n      </div>"
      },
      "entry": [
        {
          "reference": "#f7583f71-7736-4d10-89f7-fa1845e53120"
        },
        {
          "reference": "#314619c2-2d97-4fb9-9c25-b0b9da92f804"
        },
        {
          "reference": "#90d418aa-ed53-447b-95d2-099101ed4339"
        }
      ]
    },
    {
      "title": "Allergies and Adverse Reactions",
      "code": {
        "coding": [
          {
            "system": "http://loinc.org",
            "code": "48765-2",
            "display": "Allergies and or adverse reactions"
          }
        ]
      },
      "text": {
        "status": "additional",
        "div": "<div xmlns=\"http://www.w3.org/1999/xhtml\">\n        <p>No known medication allergies.</p>\n      </div>"
      },
      "entry": [
        {
          "reference": "#a5e03840-1be4-43e0-acd2-c9e288adc4f9"
        }
      ]
    },
    {
      "title": "Medical History",
      "code": {
        "coding": [
          {
            "system": "https://healthterminologies.gov.au/fhir/CodeSystem/nctis-data-components-1",
            "code": "101.16117"
          }
        ]
      },
      "text": {
        "status": "additional",
        "div": "<div xmlns=\"http://www.w3.org/1999/xhtml\">\n        <table border=\"5\">\n          <caption>Problems and Diagnoses</caption>\n          <thead>\n            <tr>\n              <th>Condition</th>\n              <th>Onset</th>\n              <th>Abatement / Resolution</th>\n            </tr>\n          </thead>\n          <tbody>\n            <tr>\n              <td>Atrial fibrillation</td>\n              <td>2017</td>\n              <td>-</td>\n            </tr>\n            <tr>\n              <td>Right lower zone pneumonia</td>\n              <td>March 2017</td>\n              <td>April 2017</td>\n            </tr>\n          </tbody>\n        </table>\n        <table border=\"5\">\n          <caption>Procedures</caption>\n          <thead>\n            <tr>\n              <th>Procedure</th>\n              <th>Date</th>\n            </tr>\n          </thead>\n          <tbody>\n            <tr>\n              <td>Total replacement of left knee joint</td>\n              <td>27 February 2015</td>\n            </tr>\n          </tbody>\n        </table>\n      </div>"
      },
      "entry": [
        {
          "reference": "#b021320c-bc5e-4ae8-b9fc-1ed2d876e889"
        },
        {
          "reference": "#cfa41daf-b5a6-4a05-9166-a4b7c23f08a1"
        },
        {
          "reference": "#3bc4a0f3-1d3e-4bde-83a9-7a04dd5f4a77"
        }
      ]
    },
    {
      "title": "Immunisations",
      "code": {
        "coding": [
          {
            "system": "http://loinc.org",
            "code": "11369-6"
          }
        ]
      },
      "text": {
        "status": "additional",
        "div": "<div xmlns=\"http://www.w3.org/1999/xhtml\">Unknown</div>"
      },
      "emptyReason": {
        "coding": [
          {
            "system": "http://hl7.org/fhir/list-empty-reason",
            "code": "unavailable",
            "display": "Unavailable"
          }
        ],
        "text": "Unknown"
      }
    }
  ]
}