{
  "resourceType": "Composition",
  "id": "a0da969a-7956-439b-b390-8de071a2df7c",
  "meta": {
    "profile": [
      "http://ns.electronichealth.net.au/ci/fhir/3.0/StructureDefinition/composition-shs-1"
    ]
  },
  "language": "en-AU",
  "text": {
    "status": "additional",
    "div": "<div xmlns=\"http://www.w3.org/1999/xhtml\" lang=\"en-AU\">\n      <p><b> id</b> : a0da969a-7956-439b-b390-8de071a2df7c</p>\n      <p><b>Language</b>: en-AU</p>\n      <p><b>Status</b> : final</p>\n      <p><b>Type</b>: Shared Health Summary <span style=\"background: LightGoldenRodYellow\">(Details : {https://healthterminologies.gov.au/fhir/CodeSystem/nctis-data-components-1\n        code '100.16685' = '100.16565', given as 'Shared Health Summary'})</span></p>\n      <p><b>Date</b> : 21/06/2017 09:00:15+10:00</p>\n      <p><b>Consumer</b>: HPI-I = 8003608666701594; name = Sammy GoodPatient</p>\n      <p><b>Author</b>: HPI-I = 8003610000000000; name = Barry Helpman M.D.</p>\n      <p><b>Attester</b>: HPI-I = 8003610000000000; name = Barry Helpman M.D.</p>\n      <p><b>Title</b> : Shared Health Summary</p>\n      <p><b>Custodian</b>: ABN = 51824754455; name = Devonport Family Medicine Clinic</p>\n    </div>"
  },
  "contained": [
    {
      "resourceType": "MedicationStatement",
      "id": "05b96f3e-dee9-438d-8b2a-5bf21e753b22",
      "meta": {
        "profile": [
          "http://ns.electronichealth.net.au/ci/fhir/3.0/StructureDefinition/medicationstatement-summary-1"
        ]
      },
      "status": "active",
      "medicationCodeableConcept": {
        "coding": [
          {
            "system": "http://snomed.info/sct",
            "code": "22087011000036100",
            "display": "candesartan cilexetil 32 mg tablet"
          }
        ],
        "text": "Candesartan 32mg"
      },
      "subject": {
        "reference": "#938897f5-0872-43e3-8c6f-58055fbb340b"
      },
      "taken": "y",
      "dosage": [
        {
          "text": "1 d",
          "timing": {
            "repeat": {
              "frequency": 1,
              "period": 1,
              "periodUnit": "d"
            }
          },
          "doseQuantity": {
            "value": 1,
            "unit": "﻿tablet",
            "system": "http://snomed.info/sct",
            "code": "63011000036109"
          }
        }
      ]
    },
    {
      "resourceType": "MedicationStatement",
      "id": "5ab243f6-3c2a-47f3-93cd-41586e12bf96",
      "meta": {
        "profile": [
          "http://ns.electronichealth.net.au/ci/fhir/3.0/StructureDefinition/medicationstatement-summary-1"
        ]
      },
      "status": "active",
      "medicationCodeableConcept": {
        "coding": [
          {
            "system": "http://snomed.info/sct",
            "code": "23358011000036102",
            "display": "metformin hydrochloride 500 mg tablet"
          }
        ],
        "text": "Metformin 500mg"
      },
      "subject": {
        "reference": "#938897f5-0872-43e3-8c6f-58055fbb340b"
      },
      "taken": "y",
      "dosage": [
        {
          "text": "1 bd",
          "timing": {
            "repeat": {
              "frequency": 2,
              "period": 1,
              "periodUnit": "d"
            }
          },
          "doseQuantity": {
            "value": 1,
            "unit": "﻿tablet",
            "system": "http://snomed.info/sct",
            "code": "63011000036109"
          }
        }
      ]
    },
    {
      "resourceType": "MedicationStatement",
      "id": "4286d537-d543-436f-bb1d-4f5bc825cb19",
      "meta": {
        "profile": [
          "http://ns.electronichealth.net.au/ci/fhir/3.0/StructureDefinition/medicationstatement-summary-1"
        ]
      },
      "status": "active",
      "medicationCodeableConcept": {
        "coding": [
          {
            "system": "http://snomed.info/sct",
            "code": "22879011000036102",
            "display": "candesartan cilexetil 8 mg tablet"
          }
        ],
        "text": "Candesartan 8mg"
      },
      "subject": {
        "reference": "#938897f5-0872-43e3-8c6f-58055fbb340b"
      },
      "taken": "y",
      "dosage": [
        {
          "text": "0.5 d",
          "timing": {
            "repeat": {
              "frequency": 1,
              "period": 1,
              "periodUnit": "d"
            }
          },
          "doseQuantity": {
            "value": 0.5,
            "unit": "﻿tablet",
            "system": "http://snomed.info/sct",
            "code": "63011000036109"
          }
        }
      ]
    },
    {
      "resourceType": "Patient",
      "id": "938897f5-0872-43e3-8c6f-58055fbb340b",
      "meta": {
        "profile": [
          "http://ns.electronichealth.net.au/ci/fhir/3.0/StructureDefinition/patient-ident-1",
          "http://ns.electronichealth.net.au/ci/fhir/3.0/StructureDefinition/patient-ihi-1"
        ]
      },
      "extension": [
        {
          "url": "http://hl7.org.au/fhir/StructureDefinition/indigenous-status",
          "valueCoding": {
            "system": "https://healthterminologies.gov.au/fhir/CodeSystem/australian-indigenous-status-1",
            "code": "9",
            "display": "Not stated/inadequately described"
          }
        }
      ],
      "identifier": [
        {
          "type": {
            "coding": [
              {
                "system": "http://hl7.org/fhir/v2/0203",
                "code": "NI",
                "display": "National unique individual identifier"
              }
            ]
          },
          "system": "http://ns.electronichealth.net.au/id/hi/ihi/1.0",
          "value": "8003608666701594"
        }
      ],
      "name": [
        {
          "text": "Sammy GoodPatient",
          "family": "GoodPatient",
          "given": [
            "Sammy"
          ]
        }
      ],
      "gender": "other",
      "birthDate": "1956-08-23",
      "generalPractitioner": [
        {
          "reference": "#077e1f2d-d5ac-4e61-8f67-1e6154775a9e"
        }
      ],
      "managingOrganization": {
        "reference": "#b6fab368-623b-45a6-a133-2d77b69663a0"
      }
    },
    {
      "resourceType": "Practitioner",
      "id": "57cde959-77ff-4c75-8575-e6583c6ca9ed",
      "meta": {
        "profile": [
          "http://ns.electronichealth.net.au/ci/fhir/3.0/StructureDefinition/practitioner-dh-base-1",
          "http://ns.electronichealth.net.au/ci/fhir/3.0/StructureDefinition/practitioner-ident-1"
        ]
      },
      "identifier": [
        {
          "type": {
            "coding": [
              {
                "system": "http://hl7.org/fhir/v2/0203",
                "code": "NPI",
                "display": "National provider identifier"
              }
            ],
            "text": "HPI-I"
          },
          "system": "http://ns.electronichealth.net.au/id/hi/hpii/1.0",
          "value": "8003610000000000"
        }
      ],
      "name": [
        {
          "use": "official",
          "family": "Helpman",
          "given": [
            "Barry"
          ],
          "suffix": [
            "M.D."
          ]
        }
      ],
      "telecom": [
        {
          "system": "email",
          "value": "bhelpman@example.devonportgp.com.au",
          "use": "work"
        }
      ],
      "qualification": [
        {
          "identifier": [
            {
              "type": {
                "coding": [
                  {
                    "system": "http://hl7.org.au/fhir/v2/0203",
                    "code": "AHPRA",
                    "display": "Australian Health Practitioner Regulation Agency Registration Number"
                  }
                ],
                "text": "AHPRA registration number"
              },
              "system": "http://hl7.org.au/id/ahpra-registration-number",
              "value": "MED0000932850"
            }
          ],
          "code": {
            "coding": [
              {
                "system": "http://www.abs.gov.au/ausstats/abs@.nsf/mf/1220.0",
                "code": "253111",
                "display": "General Medical Practitioner"
              }
            ],
            "text": "AHPRA qualification for General Practitioner"
          },
          "issuer": {
            "display": "AHPRA"
          }
        }
      ]
    },
    {
      "resourceType": "Practitioner",
      "id": "077e1f2d-d5ac-4e61-8f67-1e6154775a9e",
      "meta": {
        "profile": [
          "http://ns.electronichealth.net.au/ci/fhir/3.0/StructureDefinition/practitioner-dh-base-1"
        ]
      },
      "name": [
        {
          "use": "official",
          "family": "Doctor",
          "given": [
            "Good"
          ],
          "prefix": [
            "Dr."
          ]
        }
      ]
    },
    {
      "resourceType": "PractitionerRole",
      "id": "2c2ef185-a9fd-4756-bb22-051fac438f07",
      "meta": {
        "profile": [
          "http://ns.electronichealth.net.au/ci/fhir/3.0/StructureDefinition/practitionerrole-withpractitioner-1"
        ]
      },
      "identifier": [
        {
          "type": {
            "coding": [
              {
                "system": "http://hl7.org.au/fhir/v2/0203",
                "code": "UPIN"
              }
            ],
            "text": "Medicare Provider Number"
          },
          "system": "http://ns.electronichealth.net.au/id/medicare-provider-number",
          "value": "5544887B"
        },
        {
          "type": {
            "coding": [
              {
                "system": "http://hl7.org/fhir/v2/0203",
                "code": "NPI",
                "display": "National provider identifier"
              }
            ],
            "text": "HPI-I"
          },
          "system": "http://ns.electronichealth.net.au/id/hi/hpii/1.0",
          "value": "8003610000000000"
        }
      ],
      "practitioner": {
        "reference": "#57cde959-77ff-4c75-8575-e6583c6ca9ed"
      },
      "organization": {
        "reference": "#131e9134-d90a-47eb-9072-3233788df71f"
      },
      "code": [
        {
          "coding": [
            {
              "system": "http://www.abs.gov.au/ausstats/abs@.nsf/mf/1220.0",
              "code": "253111",
              "display": "General Practitioner"
            }
          ],
          "text": "GP"
        }
      ]
    },
    {
      "resourceType": "Organization",
      "id": "131e9134-d90a-47eb-9072-3233788df71f",
      "meta": {
        "profile": [
          "http://ns.electronichealth.net.au/ci/fhir/3.0/StructureDefinition/organization-ident-1"
        ]
      },
      "identifier": [
        {
          "type": {
            "text": "ABN"
          },
          "system": "http://hl7.org.au/id/abn",
          "value": "51824754455"
        }
      ],
      "name": "Devonport Family Medicine Clinic",
      "telecom": [
        {
          "system": "email",
          "value": "reception@example.dfmc.com.au",
          "use": "work"
        },
        {
          "system": "fax",
          "value": "(03) 8543 5557",
          "use": "work"
        },
        {
          "system": "phone",
          "value": "(03) 8543 5556",
          "use": "work"
        }
      ],
      "address": [
        {
          "type": "postal",
          "line": [
            "LPO Box 235"
          ],
          "city": "Strahan",
          "state": "TAS",
          "postalCode": "7468",
          "country": "AU"
        }
      ]
    },
    {
      "resourceType": "Organization",
      "id": "b6fab368-623b-45a6-a133-2d77b69663a0",
      "meta": {
        "profile": [
          "http://ns.electronichealth.net.au/ci/fhir/3.0/StructureDefinition/organization-dh-base-1"
        ]
      },
      "name": "GoodDoctor Clinic"
    },
    {
      "resourceType": "AllergyIntolerance",
      "id": "4a89014c-3442-4501-bfc7-0a0c4d118779",
      "meta": {
        "profile": [
          "http://ns.electronichealth.net.au/ci/fhir/3.0/StructureDefinition/allergyintollerance-summary-1"
        ]
      },
      "clinicalStatus": "active",
      "verificationStatus": "unconfirmed",
      "code": {
        "coding": [
          {
            "system": "http://snomed.info/sct",
            "code": "409137002",
            "display": "No known drug allergy"
          }
        ],
        "text": "No known medication allergies"
      },
      "patient": {
        "reference": "#938897f5-0872-43e3-8c6f-58055fbb340b"
      }
    },
    {
      "resourceType": "Procedure",
      "id": "1da5d977-64a4-4501-97c4-d5e410589a6c",
      "meta": {
        "profile": [
          "http://ns.electronichealth.net.au/ci/fhir/3.0/StructureDefinition/procedure-summary-1"
        ]
      },
      "status": "completed",
      "code": {
        "coding": [
          {
            "system": "http://snomed.info/sct",
            "code": "443681002",
            "display": "Total replacement of left knee joint"
          }
        ]
      },
      "subject": {
        "reference": "#938897f5-0872-43e3-8c6f-58055fbb340b"
      },
      "performedDateTime": "2015-02-27"
    },
    {
      "resourceType": "Condition",
      "id": "b13d9ee6-d55c-4618-916b-19a2ee9740a6",
      "meta": {
        "profile": [
          "http://ns.electronichealth.net.au/ci/fhir/3.0/StructureDefinition/condition-summary-1"
        ]
      },
      "clinicalStatus": "active",
      "code": {
        "coding": [
          {
            "system": "http://snomed.info/sct",
            "code": "49436004",
            "display": "Atrial fibrillation"
          }
        ]
      },
      "subject": {
        "reference": "#938897f5-0872-43e3-8c6f-58055fbb340b"
      },
      "onsetDateTime": "2017"
    },
    {
      "resourceType": "Condition",
      "id": "e4547df4-6651-4d79-b5a7-d73a786ddea1",
      "meta": {
        "profile": [
          "http://ns.electronichealth.net.au/ci/fhir/3.0/StructureDefinition/condition-summary-1"
        ]
      },
      "clinicalStatus": "resolved",
      "code": {
        "coding": [
          {
            "system": "http://snomed.info/sct",
            "code": "301001009",
            "display": "Right lower zone pneumonia"
          }
        ]
      },
      "subject": {
        "reference": "#938897f5-0872-43e3-8c6f-58055fbb340b"
      },
      "onsetDateTime": "2017-03",
      "abatementDateTime": "2017-04-03"
    }
  ],
  "extension": [
    {
      "url": "http://hl7.org.au/fhir/StructureDefinition/composition-author-role",
      "valueReference": {
        "reference": "#2c2ef185-a9fd-4756-bb22-051fac438f07"
      }
    }
  ],
  "identifier": {
    "system": "urn:ietf:rfc:3986",
    "value": "urn:uuid:c009fbfd-c0ab-45cc-9536-735a624c943c"
  },
  "status": "final",
  "type": {
    "coding": [
      {
        "system": "http://loinc.org",
        "code": "60591-5",
        "display": "Patient Summary"
      }
    ]
  },
  "subject": {
    "reference": "#938897f5-0872-43e3-8c6f-58055fbb340b"
  },
  "date": "2017-06-21T09:00:15+10:00",
  "author": [
    {
      "reference": "#57cde959-77ff-4c75-8575-e6583c6ca9ed"
    }
  ],
  "title": "Shared Health Summary",
  "attester": [
    {
      "mode": [
        "legal"
      ],
      "time": "2017-06-21T09:00:15+10:00",
      "party": {
        "reference": "#57cde959-77ff-4c75-8575-e6583c6ca9ed"
      }
    }
  ],
  "custodian": {
    "reference": "#131e9134-d90a-47eb-9072-3233788df71f"
  },
  "section": [
    {
      "title": "Current Medications",
      "code": {
        "coding": [
          {
            "system": "https://healthterminologies.gov.au/fhir/CodeSystem/nctis-data-components-1",
            "code": "101.32009",
            "display": "Current Medicine"
          }
        ]
      },
      "text": {
        "status": "additional",
        "div": "<div xmlns=\"http://www.w3.org/1999/xhtml\">\n        <table border=\"5\">\n          <caption>Medications</caption>\n          <thead>\n            <tr>\n              <th>Medication</th>\n              <th>Dose</th>\n              <th>Purpose/Comment</th>\n            </tr>\n          </thead>\n          <tbody>\n            <tr>\n              <td>Candesartan 32mg</td>\n              <td>1 d</td>\n              <td/>\n            </tr>\n            <tr>\n              <td>Metformin 500mg</td>\n              <td>1 bd</td>\n              <td/>\n            </tr>\n            <tr>\n              <td>Candesartan 8mg</td>\n              <td>0.5 d</td>\n              <td/>\n            </tr>\n          </tbody>\n        </table>\n      </div>"
      },
      "entry": [
        {
          "reference": "#05b96f3e-dee9-438d-8b2a-5bf21e753b22"
        },
        {
          "reference": "#5ab243f6-3c2a-47f3-93cd-41586e12bf96"
        },
        {
          "reference": "#4286d537-d543-436f-bb1d-4f5bc825cb19"
        }
      ]
    },
    {
      "title": "Allergies and Adverse Reactions",
      "code": {
        "coding": [
          {
            "system": "http://loinc.org",
            "code": "48765-2",
            "display": "Allergies and or adverse reactions"
          }
        ]
      },
      "text": {
        "status": "additional",
        "div": "<div xmlns=\"http://www.w3.org/1999/xhtml\">\n        <p>No known medication allergies.</p>\n      </div>"
      },
      "entry": [
        {
          "reference": "#4a89014c-3442-4501-bfc7-0a0c4d118779"
        }
      ]
    },
    {
      "title": "Medical History",
      "code": {
        "coding": [
          {
            "system": "https://healthterminologies.gov.au/fhir/CodeSystem/nctis-data-components-1",
            "code": "101.16117"
          }
        ]
      },
      "text": {
        "status": "additional",
        "div": "<div xmlns=\"http://www.w3.org/1999/xhtml\">\n        <table border=\"5\">\n          <caption>Problems and Diagnoses</caption>\n          <thead>\n            <tr>\n              <th>Condition</th>\n              <th>Onset</th>\n              <th>Abatement / Resolution</th>\n            </tr>\n          </thead>\n          <tbody>\n            <tr>\n              <td>Atrial fibrillation</td>\n              <td>2017</td>\n              <td>-</td>\n            </tr>\n            <tr>\n              <td>Right lower zone pneumonia</td>\n              <td>March 2017</td>\n              <td>April 2017</td>\n            </tr>\n          </tbody>\n        </table>\n        <table border=\"5\">\n          <caption>Procedures</caption>\n          <thead>\n            <tr>\n              <th>Procedure</th>\n              <th>Date</th>\n            </tr>\n          </thead>\n          <tbody>\n            <tr>\n              <td>Total replacement of left knee joint</td>\n              <td>27 February 2015</td>\n            </tr>\n          </tbody>\n        </table>\n      </div>"
      },
      "entry": [
        {
          "reference": "#e4547df4-6651-4d79-b5a7-d73a786ddea1"
        },
        {
          "reference": "#b13d9ee6-d55c-4618-916b-19a2ee9740a6"
        },
        {
          "reference": "#1da5d977-64a4-4501-97c4-d5e410589a6c"
        }
      ]
    },
    {
      "title": "Immunisations",
      "code": {
        "coding": [
          {
            "system": "http://loinc.org",
            "code": "11369-6"
          }
        ]
      },
      "text": {
        "status": "additional",
        "div": "<div xmlns=\"http://www.w3.org/1999/xhtml\">Unknown</div>"
      },
      "emptyReason": {
        "coding": [
          {
            "system": "http://hl7.org/fhir/list-empty-reason",
            "code": "unavailable",
            "display": "Unavailable"
          }
        ],
        "text": "Unknown"
      }
    }
  ]
}