{
  "resourceType": "Composition",
  "id": "dc32838b-faf3-4102-9c78-27186ac32e20",
  "meta": {
    "profile": [
      "http://ns.electronichealth.net.au/ci/fhir/3.0/StructureDefinition/composition-phs-1"
    ]
  },
  "language": "en-AU",
  "text": {
    "status": "additional",
    "div": "<div xmlns=\"http://www.w3.org/1999/xhtml\" lang=\"en-AU\">\n      <p><b>id</b>: dc32838b-faf3-4102-9c78-27186ac32e20</p>\n      <p><b>language</b>: en-AU</p>\n      <p><b>status</b>: final</p>\n      <p><b>type</b>: Personal Health Summary <span style=\"background: LightGoldenRodYellow\">(Details : {https://healthterminologies.gov.au/fhir/CodeSystem/nctis-data-components-1\n          code '100.16685' = '100.16685', given as 'Personal Health Summary'})</span></p>\n      <p><b>subject</b>: IHI = 8003608833357361; gender = male</p>\n      <p><b>date</b>: 01/12/2018 9:00:15 AM</p>\n      <p><b>author</b>: related person name: Bob Thavaprasagnam; IHI = 8003608833357361;\n        relationship = Guardian</p>\n      <p><b>title</b>: Personal Health Summary</p>\n      <p><b>custodian</b>: ABN: 20073665175</p>\n    </div>"
  },
  "contained": [
    {
      "resourceType": "Patient",
      "id": "7d10b711-cded-4339-a2fd-ef69e7ba7847",
      "meta": {
        "profile": [
          "http://ns.electronichealth.net.au/ci/fhir/3.0/StructureDefinition/patient-ihi-1",
          "http://ns.electronichealth.net.au/ci/fhir/3.0/StructureDefinition/patient-ident-1"
        ]
      },
      "identifier": [
        {
          "type": {
            "coding": [
              {
                "system": "http://hl7.org/fhir/v2/0203",
                "code": "NI",
                "display": "National unique individual identifier"
              }
            ]
          },
          "system": "http://ns.electronichealth.net.au/id/hi/ihi/1.0",
          "value": "8003608833357361"
        }
      ],
      "gender": "male"
    },
    {
      "resourceType": "RelatedPerson",
      "id": "6870bc44-97a1-4523-8d98-fc1ee640ea70",
      "meta": {
        "profile": [
          "http://ns.electronichealth.net.au/ci/fhir/3.0/StructureDefinition/relatedperson-ihi-1"
        ]
      },
      "identifier": [
        {
          "type": {
            "coding": [
              {
                "system": "http://hl7.org/fhir/v2/0203",
                "code": "NI",
                "display": "National unique individual identifier"
              }
            ]
          },
          "system": "http://ns.electronichealth.net.au/id/hi/ihi/1.0",
          "value": "8003608833357361"
        }
      ],
      "patient": {
        "reference": "#7d10b711-cded-4339-a2fd-ef69e7ba7847"
      },
      "relationship": {
        "coding": [
          {
            "system": "http://snomed.info/sct",
            "code": "394619001",
            "display": "Guardian"
          }
        ]
      },
      "name": [
        {
          "text": "Bob Thavaprasagnam"
        }
      ]
    },
    {
      "resourceType": "Organization",
      "id": "ba0bcc13-248e-4d64-a4b8-a8aa2bd9cb7c",
      "meta": {
        "profile": [
          "http://ns.electronichealth.net.au/ci/fhir/3.0/StructureDefinition/organization-ident-1"
        ]
      },
      "identifier": [
        {
          "type": {
            "coding": [
              {
                "system": "http://hl7.org/fhir/v2/0203",
                "code": "XX",
                "display": "Organization Identifier"
              }
            ],
            "text": "ABN"
          },
          "system": "http://hl7.org.au/id/abn",
          "value": "20073665175"
        }
      ]
    },
    {
      "resourceType": "AllergyIntolerance",
      "id": "90dfca31-664f-44e7-909a-905058a255fc",
      "meta": {
        "profile": [
          "http://ns.electronichealth.net.au/ci/fhir/3.0/StructureDefinition/allergyintolerance-summary-1"
        ]
      },
      "clinicalStatus": "active",
      "verificationStatus": "unconfirmed",
      "code": {
        "coding": [
          {
            "system": "http://snomed.info/sct",
            "code": "716186003",
            "display": "No known allergy"
          }
        ]
      },
      "patient": {
        "reference": "#7d10b711-cded-4339-a2fd-ef69e7ba7847"
      }
    },
    {
      "resourceType": "Observation",
      "id": "4e6c2639-370b-43cd-85db-91bf85da2b22",
      "meta": {
        "profile": [
          "http://ns.electronichealth.net.au/ci/fhir/3.0/StructureDefinition/observation-norelevantfinding-1"
        ]
      },
      "status": "final",
      "code": {
        "coding": [
          {
            "system": "http://hl7.org/fhir/v3/ActCode",
            "code": "ASSERTION",
            "display": "Assertion"
          }
        ]
      },
      "subject": {
        "reference": "#7d10b711-cded-4339-a2fd-ef69e7ba7847"
      },
      "effectiveDateTime": "2018-10-23",
      "valueCodeableConcept": {
        "coding": [
          {
            "system": "http://snomed.info/sct",
            "code": "1234391000168107",
            "display": "No known current medications"
          }
        ]
      }
    }
  ],
  "status": "final",
  "type": {
    "coding": [
      {
        "system": "https://healthterminologies.gov.au/fhir/CodeSystem/nctis-data-components-1",
        "code": "100.16685",
        "display": "Personal Health Summary"
      }
    ]
  },
  "subject": {
    "reference": "#7d10b711-cded-4339-a2fd-ef69e7ba7847"
  },
  "date": "2018-12-01T09:00:15+10:00",
  "author": [
    {
      "reference": "#6870bc44-97a1-4523-8d98-fc1ee640ea70"
    }
  ],
  "title": "Personal Health Summary",
  "custodian": {
    "reference": "#ba0bcc13-248e-4d64-a4b8-a8aa2bd9cb7c"
  },
  "section": [
    {
      "title": "Current Medications",
      "code": {
        "coding": [
          {
            "system": "https://healthterminologies.gov.au/fhir/CodeSystem/nctis-data-components-1",
            "code": "101.32009",
            "display": "Current Medicine"
          }
        ]
      },
      "text": {
        "status": "additional",
        "div": "<div xmlns=\"http://www.w3.org/1999/xhtml\">\n        <p>None</p>\n      </div>"
      },
      "entry": [
        {
          "reference": "#4e6c2639-370b-43cd-85db-91bf85da2b22"
        }
      ]
    },
    {
      "title": "Allergies and Adverse Reactions",
      "code": {
        "coding": [
          {
            "system": "http://loinc.org",
            "code": "48765-2",
            "display": "Allergies and adverse reactions Document"
          }
        ]
      },
      "text": {
        "status": "additional",
        "div": "<div xmlns=\"http://www.w3.org/1999/xhtml\">\n        <p>None</p>\n      </div>"
      },
      "entry": [
        {
          "reference": "#90dfca31-664f-44e7-909a-905058a255fc"
        }
      ]
    }
  ]
}