{
  "resourceType": "Composition",
  "id": "28d02fcf-6b64-49c1-8870-6533059b8129",
  "language": "en-AU",
  "text": {
    "status": "additional",
    "div": "<div xmlns=\"http://www.w3.org/1999/xhtml\" lang=\"en-AU\">\n\n      <h1>Personal Health Summary</h1>\n\n      <h2>Consumer details</h2>\n      <table>\n        <tbody>\n          <tr>\n            <th>Name</th>\n            <td>Verily GOODPATIENT</td>\n          </tr>\n          <tr>\n            <th>Identifier</th>\n            <td>IHI: 8003608833357361</td>\n          </tr>\n          <tr>\n            <th>Gender</th>\n            <td>other</td>\n          </tr>\n          <tr>\n            <th>Indigenous status</th>\n            <td>Neither Aboriginal nor Torres Strait Islander origin</td>\n          </tr>\n        </tbody>\n      </table>\n\n      <h2>Author details</h2>\n      <table>\n        <tbody>\n          <tr>\n            <th>Name</th>\n            <td>Verily GOODPATIENT</td>\n          </tr>\n          <tr>\n            <th>Identifier</th>\n            <td>IHI: 8003608833357361</td>\n          </tr>\n        </tbody>\n      </table>\n\n      <h2>Document details</h2>\n      <table>\n        <tbody>\n          <tr>\n            <th>Status</th>\n            <td>final</td>\n          </tr>\n          <tr>\n            <th>Created</th>\n            <td>1 Dec 2018, 09:00:15</td>\n          </tr>\n          <tr>\n            <th>Custodian</th>\n            <td>PAI-O: 8003640001000036</td>\n          </tr>\n        </tbody>\n      </table>\n\n    </div>"
  },
  "contained": [
    {
      "resourceType": "Patient",
      "id": "47aa2cc5-5f17-44b5-9360-9e9df03973a6",
      "meta": {
        "profile": [
          "http://ns.electronichealth.net.au/ci/fhir/3.0/StructureDefinition/patient-ihi-1",
          "http://ns.electronichealth.net.au/ci/fhir/3.0/StructureDefinition/patient-ident-1"
        ]
      },
      "extension": [
        {
          "url": "http://hl7.org.au/fhir/StructureDefinition/indigenous-status",
          "valueCoding": {
            "system": "https://healthterminologies.gov.au/fhir/CodeSystem/australian-indigenous-status-1",
            "code": "4",
            "display": "Neither Aboriginal nor Torres Strait Islander origin"
          }
        }
      ],
      "identifier": [
        {
          "type": {
            "coding": [
              {
                "system": "http://hl7.org/fhir/v2/0203",
                "code": "NI",
                "display": "National unique individual identifier"
              }
            ]
          },
          "system": "http://ns.electronichealth.net.au/id/hi/ihi/1.0",
          "value": "8003608833357361"
        }
      ],
      "name": [
        {
          "family": "GoodPatient",
          "given": [
            "Verily"
          ]
        }
      ],
      "gender": "other"
    },
    {
      "resourceType": "Organization",
      "id": "e45f6ec6-f598-4ac5-8b95-583467492257",
      "meta": {
        "profile": [
          "http://ns.electronichealth.net.au/ci/fhir/3.0/StructureDefinition/organization-ident-1"
        ]
      },
      "identifier": [
        {
          "type": {
            "text": "PAI-O"
          },
          "system": "http://ns.electronichealth.net.au/id/pcehr/paio/1.0",
          "value": "8003640001000036"
        }
      ]
    },
    {
      "resourceType": "MedicationStatement",
      "id": "fed62c8e-9035-4ff9-99ac-fb9de96808c8",
      "status": "active",
      "medicationCodeableConcept": {
        "text": "Ferrous sulphate & vitamin C"
      },
      "subject": {
        "reference": "#47aa2cc5-5f17-44b5-9360-9e9df03973a6"
      },
      "taken": "y",
      "dosage": [
        {
          "text": "1 d"
        }
      ]
    },
    {
      "resourceType": "MedicationStatement",
      "id": "cd0c4f16-7ef6-4e27-b8a2-c8c0337fe045",
      "status": "active",
      "medicationCodeableConcept": {
        "text": "Fluticasone/salmeterol 250/25"
      },
      "subject": {
        "reference": "#47aa2cc5-5f17-44b5-9360-9e9df03973a6"
      },
      "taken": "y",
      "dosage": [
        {
          "text": "2 bd"
        }
      ]
    },
    {
      "resourceType": "MedicationStatement",
      "id": "062ac6c2-bc48-4ee9-907a-e7203e9d1812",
      "status": "active",
      "medicationCodeableConcept": {
        "text": "Sodium chloride 600mg"
      },
      "subject": {
        "reference": "#47aa2cc5-5f17-44b5-9360-9e9df03973a6"
      },
      "taken": "y",
      "dosage": [
        {
          "text": "3m, 3 midi, 2n"
        }
      ]
    },
    {
      "resourceType": "MedicationStatement",
      "id": "177a2cf1-71c2-470f-a625-52fb64ff116b",
      "status": "active",
      "medicationCodeableConcept": {
        "text": "Mega B complex"
      },
      "subject": {
        "reference": "#47aa2cc5-5f17-44b5-9360-9e9df03973a6"
      },
      "taken": "y",
      "dosage": [
        {
          "text": "1 d"
        }
      ]
    },
    {
      "resourceType": "MedicationStatement",
      "id": "f76b5039-d478-4451-b590-acd5064f0fd7",
      "status": "active",
      "medicationCodeableConcept": {
        "text": "Multivitamin"
      },
      "subject": {
        "reference": "#47aa2cc5-5f17-44b5-9360-9e9df03973a6"
      },
      "taken": "y",
      "dosage": [
        {
          "text": "1 d"
        }
      ]
    },
    {
      "resourceType": "MedicationStatement",
      "id": "ede1015c-2cc8-46e7-ad2e-771bc7e40f87",
      "status": "active",
      "medicationCodeableConcept": {
        "text": "Bromhexine 0.8 mg/ml"
      },
      "subject": {
        "reference": "#47aa2cc5-5f17-44b5-9360-9e9df03973a6"
      },
      "taken": "y",
      "dosage": [
        {
          "text": "10 ml bd"
        }
      ]
    },
    {
      "resourceType": "AllergyIntolerance",
      "id": "fab01e0d-260e-4acc-9b22-a18d1dc88333",
      "meta": {
        "profile": [
          "http://ns.electronichealth.net.au/ci/fhir/3.0/StructureDefinition/allergyintolerance-summary-1"
        ]
      },
      "clinicalStatus": "active",
      "verificationStatus": "unconfirmed",
      "code": {
        "coding": [
          {
            "system": "http://snomed.info/sct",
            "code": "716186003",
            "display": "No known allergy"
          }
        ]
      },
      "patient": {
        "reference": "#47aa2cc5-5f17-44b5-9360-9e9df03973a6"
      }
    }
  ],
  "status": "final",
  "type": {
    "coding": [
      {
        "system": "https://healthterminologies.gov.au/fhir/CodeSystem/nctis-data-components-1",
        "code": "100.16685",
        "display": "Personal Health Summary"
      }
    ]
  },
  "subject": {
    "reference": "#47aa2cc5-5f17-44b5-9360-9e9df03973a6"
  },
  "date": "2018-12-01T09:00:15+10:00",
  "author": [
    {
      "reference": "#47aa2cc5-5f17-44b5-9360-9e9df03973a6"
    }
  ],
  "title": "Personal Health Summary",
  "custodian": {
    "reference": "#e45f6ec6-f598-4ac5-8b95-583467492257"
  },
  "section": [
    {
      "title": "Current Medications",
      "code": {
        "coding": [
          {
            "system": "https://healthterminologies.gov.au/fhir/CodeSystem/nctis-data-components-1",
            "code": "101.32009",
            "display": "Current Medicine"
          }
        ]
      },
      "text": {
        "status": "additional",
        "div": "<div xmlns=\"http://www.w3.org/1999/xhtml\">\n        <table border=\"5\">\n          <thead>\n            <tr>\n              <th>Medication</th>\n              <th>Dose</th>\n              <th>Purpose/Comment</th>\n            </tr>\n          </thead>\n          <tbody>\n            <tr>\n              <td><i>Ferrous sulphate &amp; vitamin C</i></td>\n              <td><i>1 d</i></td>\n              <td/>\n            </tr>\n            <tr>\n              <td>Fluticasone/salmeterol 250/25</td>\n              <td>2 bd</td>\n              <td/>\n            </tr>\n            <tr>\n              <td>Sodium chloride 600mg</td>\n              <td>3 m, 3 midi, 2 n</td>\n              <td/>\n            </tr>\n            <tr>\n              <td>\n                <b>Mega B complex</b>\n              </td>\n              <td>\n                <b>1 d</b>\n              </td>\n              <td/>\n            </tr>\n            <tr>\n              <td>\n                <b>Multivitamin</b>\n              </td>\n              <td>\n                <b>1 d</b>\n              </td>\n              <td/>\n            </tr>\n            <tr>\n              <td>Bromhexine 0.8mg/ml </td>\n              <td>\n                <b>10ml bd</b>\n              </td>\n              <td/>\n            </tr>\n          </tbody>\n        </table>\n      </div>"
      },
      "entry": [
        {
          "reference": "#fed62c8e-9035-4ff9-99ac-fb9de96808c8"
        },
        {
          "reference": "#cd0c4f16-7ef6-4e27-b8a2-c8c0337fe045"
        },
        {
          "reference": "#062ac6c2-bc48-4ee9-907a-e7203e9d1812"
        },
        {
          "reference": "#177a2cf1-71c2-470f-a625-52fb64ff116b"
        },
        {
          "reference": "#f76b5039-d478-4451-b590-acd5064f0fd7"
        },
        {
          "reference": "#ede1015c-2cc8-46e7-ad2e-771bc7e40f87"
        }
      ]
    },
    {
      "title": "Allergies and Adverse Reactions",
      "code": {
        "coding": [
          {
            "system": "http://loinc.org",
            "code": "48765-2",
            "display": "Allergies andor adverse reactions"
          }
        ]
      },
      "text": {
        "status": "additional",
        "div": "<div xmlns=\"http://www.w3.org/1999/xhtml\">\n        <p>I have no allergies.</p>\n      </div>"
      },
      "entry": [
        {
          "reference": "#fab01e0d-260e-4acc-9b22-a18d1dc88333"
        }
      ]
    }
  ]
}