{
  "resourceType": "Composition",
  "id": "340fcbec-f501-4582-9be1-4627618119e3",
  "language": "en-AU",
  "text": {
    "status": "additional",
    "div": "<div xmlns=\"http://www.w3.org/1999/xhtml\" lang=\"en-AU\">\n      <p><b>id</b>: 340fcbec-f501-4582-9be1-4627618119e3</p>\n      <p><b>language</b>: en-AU</p>\n      <p><b>status</b>: final</p>\n      <p><b>type</b>: Personal Health Summary <span style=\"background: LightGoldenRodYellow\">(Details : {https://healthterminologies.gov.au/fhir/CodeSystem/nctis-data-components-1\n          code '100.16685' = '100.16685', given as 'Personal Health Summary'})</span></p>\n      <p><b>subject</b>: IHI = 8003608833357361; gender = male; indigenous status: Not\n        stated/inadequately described</p>\n      <p><b>date</b>: 01/12/2018 9:00:15 AM</p>\n      <p><b>author</b>: IHI = 8003608833357361; gender = male; indigenous status: Not\n        stated/inadequately described</p>\n      <p><b>title</b>: Personal Health Summary</p>\n      <p><b>custodian</b>: PAI-O = 8003640001000036</p>\n    </div>"
  },
  "contained": [
    {
      "resourceType": "Patient",
      "id": "bb0c7f35-bdd2-4ed4-96a3-3b96be96b7f6",
      "meta": {
        "profile": [
          "http://ns.electronichealth.net.au/ci/fhir/3.0/StructureDefinition/patient-ihi-1",
          "http://ns.electronichealth.net.au/ci/fhir/3.0/StructureDefinition/patient-ident-1"
        ]
      },
      "extension": [
        {
          "url": "http://hl7.org.au/fhir/StructureDefinition/indigenous-status",
          "valueCoding": {
            "system": "https://healthterminologies.gov.au/fhir/CodeSystem/australian-indigenous-status-1",
            "code": "9",
            "display": "Not stated/inadequately described"
          }
        }
      ],
      "identifier": [
        {
          "type": {
            "coding": [
              {
                "system": "http://hl7.org/fhir/v2/0203",
                "code": "NI",
                "display": "National unique individual identifier"
              }
            ]
          },
          "system": "http://ns.electronichealth.net.au/id/hi/ihi/1.0",
          "value": "8003608833357361"
        }
      ],
      "gender": "male"
    },
    {
      "resourceType": "Organization",
      "id": "5581254e-8f40-4991-af62-d544563f0a98",
      "meta": {
        "profile": [
          "http://ns.electronichealth.net.au/ci/fhir/3.0/StructureDefinition/organization-ident-1"
        ]
      },
      "identifier": [
        {
          "type": {
            "text": "PAI-O"
          },
          "system": "http://ns.electronichealth.net.au/id/pcehr/paio/1.0",
          "value": "8003640001000036"
        }
      ]
    },
    {
      "resourceType": "AllergyIntolerance",
      "id": "2d308e46-8f41-4ac1-bcd2-6522b6c598aa",
      "meta": {
        "profile": [
          "http://ns.electronichealth.net.au/ci/fhir/3.0/StructureDefinition/allergyintolerance-summary-1"
        ]
      },
      "clinicalStatus": "active",
      "verificationStatus": "unconfirmed",
      "code": {
        "text": "Penicillin"
      },
      "patient": {
        "reference": "#bb0c7f35-bdd2-4ed4-96a3-3b96be96b7f6"
      },
      "reaction": [
        {
          "manifestation": [
            {
              "text": "Rash; Nausea and vomiting"
            }
          ]
        }
      ]
    },
    {
      "resourceType": "AllergyIntolerance",
      "id": "8440c6c5-4872-43b4-b755-d65fc7c06148",
      "meta": {
        "profile": [
          "http://ns.electronichealth.net.au/ci/fhir/3.0/StructureDefinition/allergyintolerance-summary-1"
        ]
      },
      "clinicalStatus": "active",
      "verificationStatus": "unconfirmed",
      "code": {
        "text": "Nuts"
      },
      "patient": {
        "reference": "#bb0c7f35-bdd2-4ed4-96a3-3b96be96b7f6"
      },
      "reaction": [
        {
          "manifestation": [
            {
              "text": "Breathing problems"
            }
          ]
        }
      ]
    }
  ],
  "status": "final",
  "type": {
    "coding": [
      {
        "system": "https://healthterminologies.gov.au/fhir/CodeSystem/nctis-data-components-1",
        "code": "100.16685",
        "display": "Personal Health Summary"
      }
    ]
  },
  "subject": {
    "reference": "#bb0c7f35-bdd2-4ed4-96a3-3b96be96b7f6"
  },
  "date": "2018-12-01T09:00:15+10:00",
  "author": [
    {
      "reference": "#bb0c7f35-bdd2-4ed4-96a3-3b96be96b7f6"
    }
  ],
  "title": "Personal Health Summary",
  "custodian": {
    "reference": "#5581254e-8f40-4991-af62-d544563f0a98"
  },
  "section": [
    {
      "title": "Current Medications",
      "code": {
        "coding": [
          {
            "system": "https://healthterminologies.gov.au/fhir/CodeSystem/nctis-data-components-1",
            "code": "101.32009",
            "display": "Current Medicine"
          }
        ]
      },
      "text": {
        "status": "additional",
        "div": "<div xmlns=\"http://www.w3.org/1999/xhtml\">Unknown</div>"
      },
      "emptyReason": {
        "coding": [
          {
            "system": "http://hl7.org/fhir/list-empty-reason",
            "code": "unavailable",
            "display": "Unavailable"
          }
        ],
        "text": "Unknown"
      }
    },
    {
      "title": "Allergies and Adverse Reactions",
      "code": {
        "coding": [
          {
            "system": "http://loinc.org",
            "code": "48765-2",
            "display": "Allergies andor adverse reactions"
          }
        ]
      },
      "text": {
        "status": "additional",
        "div": "<div xmlns=\"http://www.w3.org/1999/xhtml\">\n        <table>\n          <thead>\n            <tr>\n              <th>Agent</th>\n              <th>Reaction Description</th>\n            </tr>\n          </thead>\n          <tbody>\n            <tr>\n              <td>Penicillin</td>\n              <td>Rash; Nausea and vomiting</td>\n            </tr>\n            <tr>\n              <td>Nuts</td>\n              <td>Breathing problems</td>\n            </tr>\n          </tbody>\n        </table>\n      </div>"
      },
      "entry": [
        {
          "reference": "#2d308e46-8f41-4ac1-bcd2-6522b6c598aa"
        },
        {
          "reference": "#8440c6c5-4872-43b4-b755-d65fc7c06148"
        }
      ]
    }
  ]
}