<?xml version="1.0" encoding="UTF-8"?>

<Composition xmlns="http://hl7.org/fhir">
  <id value="426e957a-3c4c-4780-98f3-8339cc1e6f7c"/>
<!-- <meta>
    <profile
      value="http://ns.electronichealth.net.au/ci/fhir/3.0/StructureDefinition/composition-phs-1"/>
  </meta> -->
  <language value="en-AU"/>
  <text>
    <status value="additional"/><div xmlns="http://www.w3.org/1999/xhtml" lang="en-AU">
      <p><b>id</b>: 426e957a-3c4c-4780-98f3-8339cc1e6f7c</p>
      <p><b>language</b>: en-AU</p>
      <p><b>status</b>: final</p>
      <p><b>type</b>: Personal Health Summary <span style="background: LightGoldenRodYellow">(Details : {https://healthterminologies.gov.au/fhir/CodeSystem/nctis-data-components-1
          code '100.16685' = '100.16685', given as 'Personal Health Summary'})</span></p>
      <p><b>subject</b>: IHI = 8003608666701594; gender = male</p>
      <p><b>date</b>: 01/12/2018 9:00:15 AM</p>
      <p><b>author</b>: IHI = 8003608666701594; gender = male</p>
      <p><b>title</b>: Personal Health Summary</p>
      <p><b>custodian</b>: PAI-O = 8003640001000036</p>
    </div>
  </text>
  <contained>
    <Patient>
      <id value="Patient-5440dd6d-154e-44ef-881b-19caa274b6c4"/>
      <meta>
        <profile value="http://ns.electronichealth.net.au/ci/fhir/3.0/StructureDefinition/patient-ihi-1"/>
        <profile value="http://ns.electronichealth.net.au/ci/fhir/3.0/StructureDefinition/patient-ident-1"/>
      </meta>
      <identifier>
        <type>
          <coding>
            <system value="http://hl7.org/fhir/v2/0203"/>
            <code value="NI"/>
            <display value="National unique individual identifier"/>
          </coding>
        </type>
        <system value="http://ns.electronichealth.net.au/id/hi/ihi/1.0"/>
        <value value="8003608666701594"/>
      </identifier>
      <gender value="male"/>
    </Patient>
  </contained>
  <contained>
    <Organization>
      <id value="Organization-e497754a-860b-4777-b583-aca1137d2b46"/>
      <meta>
        <profile value="http://ns.electronichealth.net.au/ci/fhir/3.0/StructureDefinition/organization-ident-1"/>
      </meta>
      <identifier>
        <type>
          <text value="PAI-O"/>
        </type>
        <system value="http://ns.electronichealth.net.au/id/pcehr/paio/1.0"/>
        <value value="8003640001000036"/>
      </identifier>
    </Organization>
  </contained>
  <contained>
    <MedicationStatement>
      <id value="M3"/>
      <meta>
        <profile value="http://ns.electronichealth.net.au/ci/fhir/3.0/StructureDefinition/medicationstatement-summary-1"/>
      </meta>
      <status value="active"/>
      <medicationCodeableConcept>
        <text value="St. John&#39;s wort extract"/>
      </medicationCodeableConcept>
      <informationSource>
        <reference value="#Patient-5440dd6d-154e-44ef-881b-19caa274b6c4"/>
      </informationSource>
      <subject>
        <reference value="#Patient-5440dd6d-154e-44ef-881b-19caa274b6c4"/>
      </subject>
      <taken value="y"/>
      <reasonCode>
        <text value="Depression"/>
      </reasonCode>
      <dosage>
        <text value="Directions on bottle"/>
      </dosage>
    </MedicationStatement>
  </contained>
  <contained>
    <MedicationStatement>
      <id value="M2"/>
      <meta>
        <profile value="http://ns.electronichealth.net.au/ci/fhir/3.0/StructureDefinition/medicationstatement-summary-1"/>
      </meta>
      <status value="active"/>
      <medicationCodeableConcept>
        <text value="Ventolin"/>
      </medicationCodeableConcept>
      <informationSource>
        <reference value="#Patient-5440dd6d-154e-44ef-881b-19caa274b6c4"/>
      </informationSource>
      <subject>
        <reference value="#Patient-5440dd6d-154e-44ef-881b-19caa274b6c4"/>
      </subject>
      <taken value="y"/>
      <reasonCode>
        <text value="Asthma"/>
      </reasonCode>
      <note>
        <text value="Asthma is worse in springtime"/>
      </note>
      <dosage>
        <text value="Used when necessary"/>
      </dosage>
    </MedicationStatement>
  </contained>
  <contained>
    <MedicationStatement>
      <id value="M1"/>
      <meta>
        <profile value="http://ns.electronichealth.net.au/ci/fhir/3.0/StructureDefinition/medicationstatement-summary-1"/>
      </meta>
      <status value="active"/>
      <medicationCodeableConcept>
        <text value="Lasix tablet"/>
      </medicationCodeableConcept>
      <informationSource>
        <reference value="#Patient-5440dd6d-154e-44ef-881b-19caa274b6c4"/>
      </informationSource>
      <subject>
        <reference value="#Patient-5440dd6d-154e-44ef-881b-19caa274b6c4"/>
      </subject>
      <taken value="y"/>
      <reasonCode>
        <text value="Fluid retention"/>
      </reasonCode>
      <note>
        <text value="Prescribed by GP"/>
      </note>
      <dosage>
        <text value="1 tablet daily"/>
      </dosage>
    </MedicationStatement>
  </contained>
  <contained>
    <AllergyIntolerance>
      <id value="AllergyIntolerance1"/>
      <meta>
        <profile value="http://ns.electronichealth.net.au/ci/fhir/3.0/StructureDefinition/allergyintolerance-summary-1"/>
      </meta>
      <clinicalStatus value="active"/>
      <verificationStatus value="unconfirmed"/>
      <code>
        <text value="Penicillin"/>
      </code>
      <patient>
        <reference value="#Patient-5440dd6d-154e-44ef-881b-19caa274b6c4"/>
      </patient>
      <reaction>
        <manifestation>
          <text value="Rash; Nausea and vomiting"/>
        </manifestation>
      </reaction>
    </AllergyIntolerance>
  </contained>
  <contained>
    <AllergyIntolerance>
      <id value="AllergyIntolerance2"/>
      <meta>
        <profile value="http://ns.electronichealth.net.au/ci/fhir/3.0/StructureDefinition/allergyintolerance-summary-1"/>
      </meta>
      <clinicalStatus value="active"/>
      <verificationStatus value="unconfirmed"/>
      <code>
        <text value="Nuts"/>
      </code>
      <patient>
        <reference value="#Patient-5440dd6d-154e-44ef-881b-19caa274b6c4"/>
      </patient>
      <reaction>
        <manifestation>
          <text value="Breathing problems"/>
        </manifestation>
      </reaction>
    </AllergyIntolerance>
  </contained>
  <status value="final"/>
  <type>
    <coding>
      <system value="https://healthterminologies.gov.au/fhir/CodeSystem/nctis-data-components-1"/>
      <code value="100.16685"/>
      <display value="Personal Health Summary"/>
    </coding>
  </type>
  <subject>
    <reference value="#Patient-5440dd6d-154e-44ef-881b-19caa274b6c4"/>
  </subject>
  <date value="2018-12-01T09:00:15+10:00"/>
  <author>
    <reference value="#Patient-5440dd6d-154e-44ef-881b-19caa274b6c4"/>
  </author>
  <title value="Personal Health Summary"/>
  <custodian>
    <reference value="#Organization-e497754a-860b-4777-b583-aca1137d2b46"/>
  </custodian>
  <section>
    <title value="Current Medications"/>
    <code>
      <coding>
        <system value="https://healthterminologies.gov.au/fhir/CodeSystem/nctis-data-components-1"/>
        <code value="101.32009"/>
        <display value="Current Medicine"/>
      </coding>
    </code>
    <text>
      <status value="additional"/><div xmlns="http://www.w3.org/1999/xhtml">
        <table>
          <thead>
            <tr>
              <th>Medicine</th>
              <th>Dosage</th>
              <th>Reason for Medicine</th>
              <th>Notes</th>
            </tr>
          </thead>
          <tbody>
            <tr>
              <td>Lasix tablet</td>
              <td>1 tablet daily</td>
              <td>Fluid retention</td>
              <td>Prescribed by GP</td>
            </tr>
            <tr>
              <td>Ventolin</td>
              <td>Used when necessary</td>
              <td>Asthma</td>
              <td>Asthma is worse in springtime</td>
            </tr>
            <tr>
              <td>St John‘s Wort</td>
              <td>Directions on bottle</td>
              <td>Depression</td>
              <td/>
            </tr>
          </tbody>
        </table>
      </div>
    </text>
    <entry>
      <reference value="#M1"/>
    </entry>
    <entry>
      <reference value="#M2"/>
    </entry>
    <entry>
      <reference value="#M3"/>
    </entry>
  </section>
  <section>
    <title value="Allergies and Adverse Reactions"/>
    <code>
      <coding>
        <system value="http://loinc.org"/>
        <code value="48765-2"/>
        <display value="Allergies andor adverse reactions"/>
      </coding>
    </code>
    <text>
      <status value="additional"/><div xmlns="http://www.w3.org/1999/xhtml">
        <table>
          <thead>
            <tr>
              <th>Agent</th>
              <th>Reaction Description</th>
            </tr>
          </thead>
          <tbody>
            <tr>
              <td>Penicillin</td>
              <td>Rash; Nausea and vomiting</td>
            </tr>
            <tr>
              <td>Nuts</td>
              <td>Breathing problems</td>
            </tr>
          </tbody>
        </table>
      </div>
    </text>
    <entry>
      <reference value="#AllergyIntolerance1"/>
    </entry>
    <entry>
      <reference value="#AllergyIntolerance2"/>
    </entry>
  </section>
</Composition>