<?xml version="1.0" encoding="UTF-8"?>

<Composition xmlns="http://hl7.org/fhir">
  <id value="0b4e2b56-70c9-4c79-ba4f-a7596a9feefa"/>
  <meta>
    <profile value="http://ns.electronichealth.net.au/ci/fhir/3.0/StructureDefinition/composition-phn-1"/>
  </meta>
  <language value="en-AU"/>
  <text>
    <status value="generated"/><div xmlns="http://www.w3.org/1999/xhtml" xml:lang="en-AU" lang="en-AU"><p><b>Generated Narrative with Details</b></p><p><b>id</b>: 0b4e2b56-70c9-4c79-ba4f-a7596a9feefa</p><p><b>meta</b>: </p><p><b>language</b>: en-AU</p><p><b>contained</b>: , </p><p><b>status</b>: final</p><p><b>type</b>: Personal Health Notes <span style="background: LightGoldenRodYellow">(Details : {https://healthterminologies.gov.au/fhir/CodeSystem/nctis-data-components-1 code '100.16681' = '100.16681', given as 'Personal Health Notes'})</span></p><p><b>date</b>: 21/06/2017 9:00:15 AM</p><p><b>author</b>: unknown resource contained</p><p><b>title</b>: Personal Health Notes</p><p><b>custodian</b>: unknown resource contained</p></div>
  </text>
  <contained>
    <Patient>
      <id value="3f466d34-45cd-46f2-bbc3-26bc25859228"/>
      <meta>
        <profile value="http://ns.electronichealth.net.au/ci/fhir/3.0/StructureDefinition/patient-ihi-1"/>
      </meta>
      <identifier>
        <type>
          <coding>
            <system value="http://hl7.org/fhir/v2/0203"/>
            <code value="NI"/>
            <display value="National unique individual identifier"/>
          </coding>
        </type>
        <system value="http://ns.electronichealth.net.au/id/hi/ihi/1.0"/>
        <value value="8003608833357361"/>
      </identifier>
      <gender value="male"/>
    </Patient>
  </contained>
  <contained>
    <Organization>
      <id value="f2684e75-3664-4708-a7c9-9d45c045bf0c"/>
      <meta>
        <profile value="http://ns.electronichealth.net.au/ci/fhir/3.0/StructureDefinition/organization-ident-1"/>
      </meta>
      <identifier>
        <type>
          <text value="PAI-O"/>
        </type>
        <system value="http://ns.electronichealth.net.au/id/pcehr/paio/1.0"/>
        <value value="8003640001000036"/>
      </identifier>
    </Organization>
  </contained>
  <status value="final"/>
  <type>
    <coding>
      <system value="https://healthterminologies.gov.au/fhir/CodeSystem/nctis-data-components-1"/>
      <code value="100.16681"/>
      <display value="Personal Health Notes"/>
    </coding>
  </type>
  <subject>
    <reference value="#3f466d34-45cd-46f2-bbc3-26bc25859228"/>
  </subject>
  <date value="2017-06-21T09:00:15+10:00"/>
  <author>
    <reference value="#3f466d34-45cd-46f2-bbc3-26bc25859228"/>
  </author>
  <title value="Personal Health Notes"/>
  <custodian>
    <reference value="#f2684e75-3664-4708-a7c9-9d45c045bf0c"/>
  </custodian>
  <section>
    <title value="My Health Notes"/>
    <code>
      <coding>
        <system value="https://healthterminologies.gov.au/fhir/CodeSystem/nctis-data-components-1"/>
        <code value="102.15513"/>
        <display value="Notes"/>
      </coding>
    </code>
    <text>
      <status value="additional"/><div xmlns="http://www.w3.org/1999/xhtml">
                <p>
                    <b>My Diabetes</b>
                </p>
                <p>I saw my doctor today and he said my last test results were getting better, but
                    he was still not happy with my diet. I should go back to that nice dietician
                    Kate again.</p>
            </div>
    </text>
  </section>
</Composition>