{
  "resourceType": "Composition",
  "id": "fb584f29-e4cc-4f55-ba2e-7bdf03c7a5ee",
  "language": "en-AU",
  "text": {
    "status": "additional",
    "div": "<div xmlns=\"http://www.w3.org/1999/xhtml\" lang=\"en-AU\">\n\n      <h1>Personal Health Summary</h1>\n\n      <h2>Consumer details</h2>\n      <table>\n        <tbody>\n          <tr>\n            <th>Name</th>\n            <td/>\n          </tr>\n          <tr>\n            <th>Identifier</th>\n            <td>IHI: 8003608833357361</td>\n          </tr>\n          <tr>\n            <th>Gender</th>\n            <td>Male</td>\n          </tr>\n        </tbody>\n      </table>\n\n      <h2>Author details</h2>\n      <table>\n        <tbody>\n          <tr>\n            <th>Name</th>\n            <td>Terry Sampelr</td>\n          </tr>\n          <tr>\n            <th>Identifier</th>\n            <td>IHI: 8003608833357361</td>\n          </tr>\n          <tr>\n            <th>Relationship</th>\n            <td>grandfather</td>\n          </tr>\n        </tbody>\n      </table>\n\n      <h2>Document details</h2>\n      <table>\n        <tbody>\n          <tr>\n            <th>Status</th>\n            <td>final</td>\n          </tr>\n          <tr>\n            <th>Created</th>\n            <td>21 Sep 2018, 09:00:15</td>\n          </tr>\n          <tr>\n            <th>Custodian</th>\n            <td>PAI-O: 8003640001000036</td>\n          </tr>\n        </tbody>\n      </table>\n\n    </div>"
  },
  "contained": [
    {
      "resourceType": "Patient",
      "id": "82ea927e-9e84-4b65-ba04-baade2b93137",
      "meta": {
        "profile": [
          "http://ns.electronichealth.net.au/ci/fhir/3.0/StructureDefinition/patient-ihi-1",
          "http://ns.electronichealth.net.au/ci/fhir/3.0/StructureDefinition/patient-ident-1"
        ]
      },
      "identifier": [
        {
          "type": {
            "coding": [
              {
                "system": "http://hl7.org/fhir/v2/0203",
                "code": "NI",
                "display": "National unique individual identifier"
              }
            ]
          },
          "system": "http://ns.electronichealth.net.au/id/hi/ihi/1.0",
          "value": "8003608833357361"
        }
      ],
      "gender": "male"
    },
    {
      "resourceType": "RelatedPerson",
      "id": "9c44a0e9-4c8e-4c52-bdbd-9c38e4714bc6",
      "meta": {
        "profile": [
          "http://ns.electronichealth.net.au/ci/fhir/3.0/StructureDefinition/relatedperson-ihi-1"
        ]
      },
      "identifier": [
        {
          "type": {
            "coding": [
              {
                "system": "http://hl7.org/fhir/v2/0203",
                "code": "NI",
                "display": "National unique individual identifier"
              }
            ]
          },
          "system": "http://ns.electronichealth.net.au/id/hi/ihi/1.0",
          "value": "8003608833357361"
        }
      ],
      "patient": {
        "reference": "#82ea927e-9e84-4b65-ba04-baade2b93137"
      },
      "relationship": {
        "coding": [
          {
            "system": "http://hl7.org/fhir/v3/RoleCode",
            "code": "GRFTH",
            "display": "grandfather"
          }
        ]
      },
      "name": [
        {
          "text": "Terry Sampelr"
        }
      ]
    },
    {
      "resourceType": "Organization",
      "id": "c8281a7e-7b9a-434f-8c0c-06245d4e0dc5",
      "meta": {
        "profile": [
          "http://ns.electronichealth.net.au/ci/fhir/3.0/StructureDefinition/organization-ident-1"
        ]
      },
      "identifier": [
        {
          "type": {
            "text": "PAI-O"
          },
          "system": "http://ns.electronichealth.net.au/id/pcehr/paio/1.0",
          "value": "8003640001000036"
        }
      ]
    },
    {
      "resourceType": "MedicationStatement",
      "id": "9e339402-4539-4e64-acfc-c7a97a7a8805",
      "meta": {
        "profile": [
          "http://ns.electronichealth.net.au/ci/fhir/3.0/StructureDefinition/medicationstatement-summary-1"
        ]
      },
      "status": "active",
      "medicationCodeableConcept": {
        "text": "St. John's wort"
      },
      "subject": {
        "reference": "#82ea927e-9e84-4b65-ba04-baade2b93137"
      },
      "taken": "y",
      "dosage": [
        {
          "text": "As directed by packaging"
        }
      ]
    },
    {
      "resourceType": "AllergyIntolerance",
      "id": "27b06bef-2030-4bfc-8c48-3306b616a10b",
      "meta": {
        "profile": [
          "http://ns.electronichealth.net.au/ci/fhir/3.0/StructureDefinition/allergyintolerance-summary-1"
        ]
      },
      "clinicalStatus": "active",
      "verificationStatus": "unconfirmed",
      "code": {
        "text": "Allergy to eggs"
      },
      "patient": {
        "reference": "#82ea927e-9e84-4b65-ba04-baade2b93137"
      }
    }
  ],
  "identifier": {
    "system": "urn:ietf:rfc:3986",
    "value": "urn:uuid:738b6ba4-709a-4091-ad05-4790f39e17bc"
  },
  "status": "final",
  "type": {
    "coding": [
      {
        "system": "https://healthterminologies.gov.au/fhir/CodeSystem/nctis-data-components-1",
        "code": "100.16685",
        "display": "Personal Health Summary"
      }
    ]
  },
  "subject": {
    "reference": "#82ea927e-9e84-4b65-ba04-baade2b93137"
  },
  "date": "2018-09-21T09:00:15+10:00",
  "author": [
    {
      "reference": "#9c44a0e9-4c8e-4c52-bdbd-9c38e4714bc6"
    }
  ],
  "title": "Personal Health Summary",
  "custodian": {
    "reference": "#c8281a7e-7b9a-434f-8c0c-06245d4e0dc5"
  },
  "section": [
    {
      "title": "Current Medications",
      "code": {
        "coding": [
          {
            "system": "https://healthterminologies.gov.au/fhir/CodeSystem/nctis-data-components-1",
            "code": "101.32009",
            "display": "Current Medicine"
          }
        ]
      },
      "text": {
        "status": "additional",
        "div": "<div xmlns=\"http://www.w3.org/1999/xhtml\">\n        <p>St. John's wort</p>\n        <p>As directed by packaging</p>\n      </div>"
      },
      "entry": [
        {
          "reference": "#9e339402-4539-4e64-acfc-c7a97a7a8805"
        }
      ]
    },
    {
      "title": "Allergies and Adverse Reactions",
      "code": {
        "coding": [
          {
            "system": "http://loinc.org",
            "code": "48765-2",
            "display": "Allergies andor adverse reactions"
          }
        ]
      },
      "text": {
        "status": "additional",
        "div": "<div xmlns=\"http://www.w3.org/1999/xhtml\">\n        <p>Allergy to eggs.</p>\n      </div>"
      },
      "entry": [
        {
          "reference": "#27b06bef-2030-4bfc-8c48-3306b616a10b"
        }
      ]
    }
  ]
}