{
  "resourceType": "Composition",
  "id": "0b4e2b56-70c9-4c79-ba4f-a7596a9feefa",
  "meta": {
    "profile": [
      "http://ns.electronichealth.net.au/ci/fhir/3.0/StructureDefinition/composition-phn-1"
    ]
  },
  "language": "en-AU",
  "text": {
    "status": "generated",
    "div": "<div xmlns=\"http://www.w3.org/1999/xhtml\"><p><b>Generated Narrative with Details</b></p><p><b>id</b>: 0b4e2b56-70c9-4c79-ba4f-a7596a9feefa</p><p><b>meta</b>: </p><p><b>language</b>: en-AU</p><p><b>contained</b>: , </p><p><b>status</b>: final</p><p><b>type</b>: Personal Health Notes <span style=\"background: LightGoldenRodYellow\">(Details : {https://healthterminologies.gov.au/fhir/CodeSystem/nctis-data-components-1 code '100.16681' = '100.16681', given as 'Personal Health Notes'})</span></p><p><b>date</b>: 21/06/2017 9:00:15 AM</p><p><b>author</b>: unknown resource contained</p><p><b>title</b>: Personal Health Notes</p><p><b>custodian</b>: unknown resource contained</p></div>"
  },
  "contained": [
    {
      "resourceType": "Patient",
      "id": "3f466d34-45cd-46f2-bbc3-26bc25859228",
      "meta": {
        "profile": [
          "http://ns.electronichealth.net.au/ci/fhir/3.0/StructureDefinition/patient-ihi-1"
        ]
      },
      "identifier": [
        {
          "type": {
            "coding": [
              {
                "system": "http://hl7.org/fhir/v2/0203",
                "code": "NI",
                "display": "National unique individual identifier"
              }
            ]
          },
          "system": "http://ns.electronichealth.net.au/id/hi/ihi/1.0",
          "value": "8003608833357361"
        }
      ],
      "gender": "male"
    },
    {
      "resourceType": "Organization",
      "id": "f2684e75-3664-4708-a7c9-9d45c045bf0c",
      "meta": {
        "profile": [
          "http://ns.electronichealth.net.au/ci/fhir/3.0/StructureDefinition/organization-ident-1"
        ]
      },
      "identifier": [
        {
          "type": {
            "text": "PAI-O"
          },
          "system": "http://ns.electronichealth.net.au/id/pcehr/paio/1.0",
          "value": "8003640001000036"
        }
      ]
    }
  ],
  "status": "final",
  "type": {
    "coding": [
      {
        "system": "https://healthterminologies.gov.au/fhir/CodeSystem/nctis-data-components-1",
        "code": "100.16681",
        "display": "Personal Health Notes"
      }
    ]
  },
  "subject": {
    "reference": "#3f466d34-45cd-46f2-bbc3-26bc25859228"
  },
  "date": "2017-06-21T09:00:15+10:00",
  "author": [
    {
      "reference": "#3f466d34-45cd-46f2-bbc3-26bc25859228"
    }
  ],
  "title": "Personal Health Notes",
  "custodian": {
    "reference": "#f2684e75-3664-4708-a7c9-9d45c045bf0c"
  },
  "section": [
    {
      "title": "My Health Notes",
      "code": {
        "coding": [
          {
            "system": "https://healthterminologies.gov.au/fhir/CodeSystem/nctis-data-components-1",
            "code": "102.15513",
            "display": "Notes"
          }
        ]
      },
      "text": {
        "status": "additional",
        "div": "<div xmlns=\"http://www.w3.org/1999/xhtml\">\n                <p>\n                    <b>My Diabetes</b>\n                </p>\n                <p>I saw my doctor today and he said my last test results were getting better, but\n                    he was still not happy with my diet. I should go back to that nice dietician\n                    Kate again.</p>\n            </div>"
      }
    }
  ]
}