<?xml version="1.0" encoding="UTF-8"?>

<Composition xmlns="http://hl7.org/fhir">
  <id value="fb584f29-e4cc-4f55-ba2e-7bdf03c7a5ee"/>
<!-- <meta>
    <profile
      value="http://ns.electronichealth.net.au/ci/fhir/3.0/StructureDefinition/composition-phs-1"/>
  </meta> -->
  <language value="en-AU"/>
  <text>
    <status value="additional"/><div xmlns="http://www.w3.org/1999/xhtml" lang="en-AU">

      <h1>Personal Health Summary</h1>

      <h2>Consumer details</h2>
      <table>
        <tbody>
          <tr>
            <th>Name</th>
            <td/>
          </tr>
          <tr>
            <th>Identifier</th>
            <td>IHI: 8003608833357361</td>
          </tr>
          <tr>
            <th>Gender</th>
            <td>Male</td>
          </tr>
        </tbody>
      </table>

      <h2>Author details</h2>
      <table>
        <tbody>
          <tr>
            <th>Name</th>
            <td>Terry Sampelr</td>
          </tr>
          <tr>
            <th>Identifier</th>
            <td>IHI: 8003608833357361</td>
          </tr>
          <tr>
            <th>Relationship</th>
            <td>grandfather</td>
          </tr>
        </tbody>
      </table>

      <h2>Document details</h2>
      <table>
        <tbody>
          <tr>
            <th>Status</th>
            <td>final</td>
          </tr>
          <tr>
            <th>Created</th>
            <td>21 Sep 2018, 09:00:15</td>
          </tr>
          <tr>
            <th>Custodian</th>
            <td>PAI-O: 8003640001000036</td>
          </tr>
        </tbody>
      </table>

    </div>
  </text>
  <contained>
    <Patient>
      <id value="82ea927e-9e84-4b65-ba04-baade2b93137"/>
      <meta>
        <profile value="http://ns.electronichealth.net.au/ci/fhir/3.0/StructureDefinition/patient-ihi-1"/>
        <profile value="http://ns.electronichealth.net.au/ci/fhir/3.0/StructureDefinition/patient-ident-1"/>
      </meta>
      <identifier>
        <type>
          <coding>
            <system value="http://hl7.org/fhir/v2/0203"/>
            <code value="NI"/>
            <display value="National unique individual identifier"/>
          </coding>
        </type>
        <system value="http://ns.electronichealth.net.au/id/hi/ihi/1.0"/>
        <value value="8003608833357361"/>
      </identifier>
      <gender value="male"/>
    </Patient>
  </contained>
  <contained>
    <RelatedPerson>
      <id value="9c44a0e9-4c8e-4c52-bdbd-9c38e4714bc6"/>
      <meta>
        <profile value="http://ns.electronichealth.net.au/ci/fhir/3.0/StructureDefinition/relatedperson-ihi-1"/>
      </meta>
      <identifier>
        <type>
          <coding>
            <system value="http://hl7.org/fhir/v2/0203"/>
            <code value="NI"/>
            <display value="National unique individual identifier"/>
          </coding>
        </type>
        <system value="http://ns.electronichealth.net.au/id/hi/ihi/1.0"/>
        <value value="8003608833357361"/>
      </identifier>
      <patient>
        <reference value="#82ea927e-9e84-4b65-ba04-baade2b93137"/>
      </patient>
      <relationship>
        <coding>
          <system value="http://hl7.org/fhir/v3/RoleCode"/>
          <code value="GRFTH"/>
          <display value="grandfather"/>
        </coding>
      </relationship>
      <name>
        <text value="Terry Sampelr"/>
      </name>
    </RelatedPerson>
  </contained>
  <contained>
    <Organization>
      <id value="c8281a7e-7b9a-434f-8c0c-06245d4e0dc5"/>
      <meta>
        <profile value="http://ns.electronichealth.net.au/ci/fhir/3.0/StructureDefinition/organization-ident-1"/>
      </meta>
      <identifier>
        <type>
          <text value="PAI-O"/>
        </type>
        <system value="http://ns.electronichealth.net.au/id/pcehr/paio/1.0"/>
        <value value="8003640001000036"/>
      </identifier>
    </Organization>
  </contained>
  <contained>
    <MedicationStatement>
      <id value="9e339402-4539-4e64-acfc-c7a97a7a8805"/>
      <meta>
        <profile value="http://ns.electronichealth.net.au/ci/fhir/3.0/StructureDefinition/medicationstatement-summary-1"/>
      </meta>
      <status value="active"/>
      <medicationCodeableConcept>
        <text value="St. John&#39;s wort"/>
      </medicationCodeableConcept>
      <subject>
        <reference value="#82ea927e-9e84-4b65-ba04-baade2b93137"/>
      </subject>
      <taken value="y"/>
      <dosage>
        <text value="As directed by packaging"/>
      </dosage>
    </MedicationStatement>
  </contained>
  <contained>
    <AllergyIntolerance>
      <id value="27b06bef-2030-4bfc-8c48-3306b616a10b"/>
      <meta>
        <profile value="http://ns.electronichealth.net.au/ci/fhir/3.0/StructureDefinition/allergyintolerance-summary-1"/>
      </meta>
      <clinicalStatus value="active"/>
      <verificationStatus value="unconfirmed"/>
      <code>
        <text value="Allergy to eggs"/>
      </code>
      <patient>
        <reference value="#82ea927e-9e84-4b65-ba04-baade2b93137"/>
      </patient>
    </AllergyIntolerance>
  </contained>
  <identifier>
    <system value="urn:ietf:rfc:3986"/>
    <value value="urn:uuid:738b6ba4-709a-4091-ad05-4790f39e17bc"/>
  </identifier>
  <status value="final"/>
  <type>
    <coding>
      <system value="https://healthterminologies.gov.au/fhir/CodeSystem/nctis-data-components-1"/>
      <code value="100.16685"/>
      <display value="Personal Health Summary"/>
    </coding>
  </type>
  <subject>
    <reference value="#82ea927e-9e84-4b65-ba04-baade2b93137"/>
  </subject>
  <date value="2018-09-21T09:00:15+10:00"/>
  <author>
    <reference value="#9c44a0e9-4c8e-4c52-bdbd-9c38e4714bc6"/>
  </author>
  <title value="Personal Health Summary"/>
  <custodian>
    <reference value="#c8281a7e-7b9a-434f-8c0c-06245d4e0dc5"/>
  </custodian>
  <section>
    <title value="Current Medications"/>
    <code>
      <coding>
        <system value="https://healthterminologies.gov.au/fhir/CodeSystem/nctis-data-components-1"/>
        <code value="101.32009"/>
        <display value="Current Medicine"/>
      </coding>
    </code>
    <text>
      <status value="additional"/><div xmlns="http://www.w3.org/1999/xhtml">
        <p>St. John's wort</p>
        <p>As directed by packaging</p>
      </div>
    </text>
    <entry>
      <reference value="#9e339402-4539-4e64-acfc-c7a97a7a8805"/>
    </entry>
  </section>
  <section>
    <title value="Allergies and Adverse Reactions"/>
    <code>
      <coding>
        <system value="http://loinc.org"/>
        <code value="48765-2"/>
        <display value="Allergies andor adverse reactions"/>
      </coding>
    </code>
    <text>
      <status value="additional"/><div xmlns="http://www.w3.org/1999/xhtml">
        <p>Allergy to eggs.</p>
      </div>
    </text>
    <entry>
      <reference value="#27b06bef-2030-4bfc-8c48-3306b616a10b"/>
    </entry>
  </section>
</Composition>