<?xml version="1.0" encoding="UTF-8"?>

<Composition xmlns="http://hl7.org/fhir">
  <id value="composition-phn-example2"/>
  <meta>
    <profile value="http://ns.electronichealth.net.au/ci/fhir/3.0/StructureDefinition/composition-phn-1"/>
  </meta>
  <language value="en-AU"/>
  <text>
    <status value="generated"/><div xmlns="http://www.w3.org/1999/xhtml"><p><b>Generated Narrative with Details</b></p><p><b>id</b>: composition-phn-example2</p><p><b>meta</b>: </p><p><b>language</b>: en-AU</p><p><b>contained</b>: , , </p><p><b>status</b>: final</p><p><b>type</b>: Personal Health Notes <span style="background: LightGoldenRodYellow">(Details : {https://healthterminologies.gov.au/fhir/CodeSystem/nctis-data-components-1 code '100.16681' = '100.16681', given as 'Personal Health Notes'})</span></p><p><b>date</b>: 21/06/2017 9:00:15 AM</p><p><b>author</b>: unknown resource contained</p><p><b>title</b>: Personal Health Notes</p><p><b>custodian</b>: unknown resource contained</p></div>
  </text>
  <contained>
    <Patient>
      <id value="Patient1"/>
      <meta>
        <profile value="http://ns.electronichealth.net.au/ci/fhir/3.0/StructureDefinition/patient-ihi-1"/>
      </meta>
      <identifier>
        <type>
          <coding>
            <system value="http://hl7.org/fhir/v2/0203"/>
            <code value="NI"/>
            <display value="National unique individual identifier"/>
          </coding>
        </type>
        <system value="http://ns.electronichealth.net.au/id/hi/ihi/1.0"/>
        <value value="8003608666701594"/>
      </identifier>
      <telecom>
        <system value="phone"/>
        <value value="(03) 44556677"/>
      </telecom>
      <gender value="female"/>
      <address>
        <line value="55 Sarah Street"/>
        <city value="Strahan"/>
        <state value="TAS"/>
        <postalCode value="7468"/>
        <country value="AU"/>
      </address>
    </Patient>
  </contained>
  <contained>
    <RelatedPerson>
      <id value="RelatedPerson1"/>
      <meta>
        <profile value="http://ns.electronichealth.net.au/ci/fhir/3.0/StructureDefinition/relatedperson-ihi-1"/>
      </meta>
      <identifier>
        <type>
          <coding>
            <system value="http://hl7.org/fhir/v2/0203"/>
            <code value="NI"/>
            <display value="National unique individual identifier"/>
          </coding>
        </type>
        <system value="http://ns.electronichealth.net.au/id/hi/ihi/1.0"/>
        <value value="8003608833357361"/>
      </identifier>
      <patient>
        <reference value="#Patient1"/>
      </patient>
      <relationship>
        <coding>
          <system value="http://hl7.org/fhir/v3/RoleCode"/>
          <code value="SIGOTHR"/>
          <display value="significant other"/>
        </coding>
      </relationship>
    </RelatedPerson>
  </contained>
  <contained>
    <Organization>
      <id value="Organization1"/>
      <meta>
        <profile value="http://ns.electronichealth.net.au/ci/fhir/3.0/StructureDefinition/organization-ident-1"/>
      </meta>
      <identifier>
        <type>
          <text value="PAI-O"/>
        </type>
        <system value="http://ns.electronichealth.net.au/id/pcehr/paio/1.0"/>
        <value value="8003640001000036"/>
      </identifier>
    </Organization>
  </contained>
  <status value="final"/>
  <type>
    <coding>
      <system value="https://healthterminologies.gov.au/fhir/CodeSystem/nctis-data-components-1"/>
      <code value="100.16681"/>
      <display value="Personal Health Notes"/>
    </coding>
  </type>
  <subject>
    <reference value="#Patient1"/>
  </subject>
  <date value="2017-06-21T09:00:15+10:00"/>
  <author>
    <reference value="#RelatedPerson1"/>
  </author>
  <title value="Personal Health Notes"/>
  <custodian>
    <reference value="#Organization1"/>
  </custodian>
  <section>
    <title value="My Health Notes"/>
    <code>
      <coding>
        <system value="https://healthterminologies.gov.au/fhir/CodeSystem/nctis-data-components-1"/>
        <code value="102.15513"/>
        <display value="Notes"/>
      </coding>
    </code>
    <text>
      <status value="additional"/><div xmlns="http://www.w3.org/1999/xhtml">
                <p>
                    <b>Exercise note</b>
                </p>
                <p>Have been for a 20 min run every morning since last Friday.</p>
            </div>
    </text>
  </section>
</Composition>