<?xml version="1.0" encoding="UTF-8"?>

<Composition xmlns="http://hl7.org/fhir">
  <id value="340fcbec-f501-4582-9be1-4627618119e3"/>
<!-- <meta>
    <profile
      value="http://ns.electronichealth.net.au/ci/fhir/3.0/StructureDefinition/composition-phs-1"/>
  </meta> -->
  <language value="en-AU"/>
  <text>
    <status value="additional"/><div xmlns="http://www.w3.org/1999/xhtml" lang="en-AU">
      <p><b>id</b>: 340fcbec-f501-4582-9be1-4627618119e3</p>
      <p><b>language</b>: en-AU</p>
      <p><b>status</b>: final</p>
      <p><b>type</b>: Personal Health Summary <span style="background: LightGoldenRodYellow">(Details : {https://healthterminologies.gov.au/fhir/CodeSystem/nctis-data-components-1
          code '100.16685' = '100.16685', given as 'Personal Health Summary'})</span></p>
      <p><b>subject</b>: IHI = 8003608833357361; gender = male; indigenous status: Not
        stated/inadequately described</p>
      <p><b>date</b>: 01/12/2018 9:00:15 AM</p>
      <p><b>author</b>: IHI = 8003608833357361; gender = male; indigenous status: Not
        stated/inadequately described</p>
      <p><b>title</b>: Personal Health Summary</p>
      <p><b>custodian</b>: PAI-O = 8003640001000036</p>
    </div>
  </text>
  <contained>
    <Patient>
      <id value="bb0c7f35-bdd2-4ed4-96a3-3b96be96b7f6"/>
      <meta>
        <profile value="http://ns.electronichealth.net.au/ci/fhir/3.0/StructureDefinition/patient-ihi-1"/>
        <profile value="http://ns.electronichealth.net.au/ci/fhir/3.0/StructureDefinition/patient-ident-1"/>
      </meta>
      <extension url="http://hl7.org.au/fhir/StructureDefinition/indigenous-status">
        <valueCoding>
          <system value="https://healthterminologies.gov.au/fhir/CodeSystem/australian-indigenous-status-1"/>
          <code value="9"/>
          <display value="Not stated/inadequately described"/>
        </valueCoding>
      </extension>
      <identifier>
        <type>
          <coding>
            <system value="http://hl7.org/fhir/v2/0203"/>
            <code value="NI"/>
            <display value="National unique individual identifier"/>
          </coding>
        </type>
        <system value="http://ns.electronichealth.net.au/id/hi/ihi/1.0"/>
        <value value="8003608833357361"/>
      </identifier>
      <gender value="male"/>
    </Patient>
  </contained>
  <contained>
    <Organization>
      <id value="5581254e-8f40-4991-af62-d544563f0a98"/>
      <meta>
        <profile value="http://ns.electronichealth.net.au/ci/fhir/3.0/StructureDefinition/organization-ident-1"/>
      </meta>
      <identifier>
        <type>
          <text value="PAI-O"/>
        </type>
        <system value="http://ns.electronichealth.net.au/id/pcehr/paio/1.0"/>
        <value value="8003640001000036"/>
      </identifier>
    </Organization>
  </contained>
  <contained>
    <AllergyIntolerance>
      <id value="2d308e46-8f41-4ac1-bcd2-6522b6c598aa"/>
      <meta>
        <profile value="http://ns.electronichealth.net.au/ci/fhir/3.0/StructureDefinition/allergyintolerance-summary-1"/>
      </meta>
      <clinicalStatus value="active"/>
      <verificationStatus value="unconfirmed"/>
      <code>
        <text value="Penicillin"/>
      </code>
      <patient>
        <reference value="#bb0c7f35-bdd2-4ed4-96a3-3b96be96b7f6"/>
      </patient>
      <reaction>
        <manifestation>
          <text value="Rash; Nausea and vomiting"/>
        </manifestation>
      </reaction>
    </AllergyIntolerance>
  </contained>
  <contained>
    <AllergyIntolerance>
      <id value="8440c6c5-4872-43b4-b755-d65fc7c06148"/>
      <meta>
        <profile value="http://ns.electronichealth.net.au/ci/fhir/3.0/StructureDefinition/allergyintolerance-summary-1"/>
      </meta>
      <clinicalStatus value="active"/>
      <verificationStatus value="unconfirmed"/>
      <code>
        <text value="Nuts"/>
      </code>
      <patient>
        <reference value="#bb0c7f35-bdd2-4ed4-96a3-3b96be96b7f6"/>
      </patient>
      <reaction>
        <manifestation>
          <text value="Breathing problems"/>
        </manifestation>
      </reaction>
    </AllergyIntolerance>
  </contained>
  <status value="final"/>
  <type>
    <coding>
      <system value="https://healthterminologies.gov.au/fhir/CodeSystem/nctis-data-components-1"/>
      <code value="100.16685"/>
      <display value="Personal Health Summary"/>
    </coding>
  </type>
  <subject>
    <reference value="#bb0c7f35-bdd2-4ed4-96a3-3b96be96b7f6"/>
  </subject>
  <date value="2018-12-01T09:00:15+10:00"/>
  <author>
    <reference value="#bb0c7f35-bdd2-4ed4-96a3-3b96be96b7f6"/>
  </author>
  <title value="Personal Health Summary"/>
  <custodian>
    <reference value="#5581254e-8f40-4991-af62-d544563f0a98"/>
  </custodian>
  <section>
    <title value="Current Medications"/>
    <code>
      <coding>
        <system value="https://healthterminologies.gov.au/fhir/CodeSystem/nctis-data-components-1"/>
        <code value="101.32009"/>
        <display value="Current Medicine"/>
      </coding>
    </code>
    <text>
      <status value="additional"/><div xmlns="http://www.w3.org/1999/xhtml">Unknown</div>
    </text>
    <emptyReason>
      <coding>
        <system value="http://hl7.org/fhir/list-empty-reason"/>
        <code value="unavailable"/>
        <display value="Unavailable"/>
      </coding>
      <text value="Unknown"/>
    </emptyReason>
  </section>
  <section>
    <title value="Allergies and Adverse Reactions"/>
    <code>
      <coding>
        <system value="http://loinc.org"/>
        <code value="48765-2"/>
        <display value="Allergies andor adverse reactions"/>
      </coding>
    </code>
    <text>
      <status value="additional"/><div xmlns="http://www.w3.org/1999/xhtml">
        <table>
          <thead>
            <tr>
              <th>Agent</th>
              <th>Reaction Description</th>
            </tr>
          </thead>
          <tbody>
            <tr>
              <td>Penicillin</td>
              <td>Rash; Nausea and vomiting</td>
            </tr>
            <tr>
              <td>Nuts</td>
              <td>Breathing problems</td>
            </tr>
          </tbody>
        </table>
      </div>
    </text>
    <entry>
      <reference value="#2d308e46-8f41-4ac1-bcd2-6522b6c598aa"/>
    </entry>
    <entry>
      <reference value="#8440c6c5-4872-43b4-b755-d65fc7c06148"/>
    </entry>
  </section>
</Composition>